{
  "resourceType": "Bundle",
  "id": "61152a3b98086b7a79cbd7c1",
  "type": "transaction",
  "entry": [ {
    "fullUrl": "https://madie.cms.gov/Patient/8eca4ab8-49f0-45e4-b1ee-dc34e54dd430",
    "resource": {
      "resourceType": "Patient",
      "id": "8eca4ab8-49f0-45e4-b1ee-dc34e54dd430",
      "meta": {
        "profile": [ "http://hl7.org/fhir/us/qicore/StructureDefinition/qicore-patient" ]
      },
      "text": {
        "status": "generated",
        "div": "<div xmlns=\"http://www.w3.org/1999/xhtml\"><div class=\"hapiHeaderText\">LabTestLT40 <b>NUMERPASS </b></div><table class=\"hapiPropertyTable\"><tbody><tr><td>Identifier</td><td>586d4a6e02bdc77ad4ccc45b11df2e6217c10e5956f9696833b6e57a5da29f4d</td></tr><tr><td>Date of birth</td><td><span>31 July 1992</span></td></tr></tbody></table></div>"
      },
      "extension": [ {
        "url": "http://hl7.org/fhir/us/core/StructureDefinition/us-core-race",
        "extension": [ {
          "url": "ombCategory",
          "valueCoding": {
            "system": "urn:oid:2.16.840.1.113883.6.238",
            "code": "1002-5",
            "display": "American Indian or Alaska Native",
            "userSelected": true
          }
        }, {
          "url": "text",
          "valueString": "American Indian or Alaska Native"
        } ]
      }, {
        "url": "http://hl7.org/fhir/us/core/StructureDefinition/us-core-ethnicity",
        "extension": [ {
          "url": "ombCategory",
          "valueCoding": {
            "system": "urn:oid:2.16.840.1.113883.6.238",
            "code": "2135-2",
            "display": "Hispanic or Latino",
            "userSelected": true
          }
        }, {
          "url": "text",
          "valueString": "Hispanic or Latino"
        } ]
      } ],
      "identifier": [ {
        "type": {
          "coding": [ {
            "system": "http://terminology.hl7.org/CodeSystem/v2-0203",
            "code": "MR"
          } ]
        },
        "system": "https://bonnie-fhir.healthit.gov/",
        "value": "61152a3b98086b7a79cbd7c1"
      } ],
      "active": true,
      "name": [ {
        "use": "usual",
        "family": "NUMERPass",
        "given": [ "LabTestLT40" ]
      } ],
      "gender": "female",
      "birthDate": "1992-07-31"
    },
    "request": {
      "method": "PUT",
      "url": "Patient/8eca4ab8-49f0-45e4-b1ee-dc34e54dd430"
    }
  }, {
    "fullUrl": "https://madie.cms.gov/Coverage/Coverage-1",
    "resource": {
      "resourceType": "Coverage",
      "id": "Coverage-1",
      "meta": {
        "profile": [ "http://hl7.org/fhir/us/qicore/StructureDefinition/qicore-coverage" ]
      },
      "identifier": [ {
        "system": "http://benefitsinc.com/certificate",
        "value": "12345"
      } ],
      "status": "active",
      "type": {
        "coding": [ {
          "system": "https://nahdo.org/sopt",
          "code": "59",
          "display": "Other Private Insurance"
        } ]
      },
      "policyHolder": {
        "reference": "Patient/8eca4ab8-49f0-45e4-b1ee-dc34e54dd430"
      },
      "subscriber": {
        "reference": "Patient/8eca4ab8-49f0-45e4-b1ee-dc34e54dd430"
      },
      "beneficiary": {
        "reference": "Patient/8eca4ab8-49f0-45e4-b1ee-dc34e54dd430"
      },
      "dependent": "0",
      "relationship": {
        "coding": [ {
          "system": "http://terminology.hl7.org/CodeSystem/subscriber-relationship",
          "code": "self"
        } ]
      },
      "period": {
        "start": "2025-01-01T08:00:00+00:00",
        "end": "2025-12-31T08:00:00+00:00"
      },
      "payor": [ {
        "reference": "Organization/Organization-2"
      } ],
      "order": 9
    },
    "request": {
      "method": "PUT",
      "url": "Coverage/Coverage-1"
    }
  }, {
    "fullUrl": "https://madie.cms.gov/Encounter/5bfc28feb8484648d6d7523b",
    "resource": {
      "resourceType": "Encounter",
      "id": "5bfc28feb8484648d6d7523b",
      "meta": {
        "profile": [ "http://hl7.org/fhir/us/qicore/StructureDefinition/qicore-encounter" ]
      },
      "status": "finished",
      "class": {
        "system": "http://terminology.hl7.org/CodeSystem/v3-ActCode",
        "code": "IMP",
        "display": "inpatient encounter"
      },
      "type": [ {
        "coding": [ {
          "system": "http://snomed.info/sct",
          "code": "183452005"
        } ]
      } ],
      "subject": {
        "reference": "Patient/8eca4ab8-49f0-45e4-b1ee-dc34e54dd430"
      },
      "period": {
        "start": "2025-07-11T08:00:00+00:00",
        "end": "2025-07-15T21:00:00+00:00"
      },
      "length": {
        "value": 0.0,
        "unit": "days"
      }
    },
    "request": {
      "method": "PUT",
      "url": "Encounter/5bfc28feb8484648d6d7523b"
    }
  }, {
    "fullUrl": "https://madie.cms.gov/MedicationAdministration/60130f0378b8e50000642ab8",
    "resource": {
      "resourceType": "MedicationAdministration",
      "id": "60130f0378b8e50000642ab8",
      "meta": {
        "profile": [ "http://hl7.org/fhir/us/qicore/StructureDefinition/qicore-medicationadministration" ]
      },
      "status": "completed",
      "medicationCodeableConcept": {
        "coding": [ {
          "system": "http://www.nlm.nih.gov/research/umls/rxnorm",
          "code": "1361493",
          "display": "glimepiride 6 MG Oral Tablet",
          "userSelected": true
        } ]
      },
      "subject": {
        "reference": "Patient/8eca4ab8-49f0-45e4-b1ee-dc34e54dd430"
      },
      "effectivePeriod": {
        "start": "2025-07-11T08:00:00+00:00",
        "end": "2025-07-11T09:00:00+00:00"
      }
    },
    "request": {
      "method": "PUT",
      "url": "MedicationAdministration/60130f0378b8e50000642ab8"
    }
  }, {
    "fullUrl": "https://madie.cms.gov/Observation/glucose-lab-test-mass-per-volume-22f7",
    "resource": {
      "resourceType": "Observation",
      "id": "glucose-lab-test-mass-per-volume-22f7",
      "meta": {
        "profile": [ "http://hl7.org/fhir/us/qicore/StructureDefinition/qicore-observation" ]
      },
      "status": "final",
      "category": [ {
        "coding": [ {
          "system": "http://terminology.hl7.org/CodeSystem/observation-category",
          "code": "laboratory",
          "display": "Laboratory"
        } ]
      } ],
      "code": {
        "coding": [ {
          "system": "http://loinc.org",
          "version": "2.72",
          "code": "1556-0",
          "display": "Fasting glucose [Mass/volume] in Capillary blood",
          "userSelected": true
        } ]
      },
      "subject": {
        "reference": "Patient/8eca4ab8-49f0-45e4-b1ee-dc34e54dd430"
      },
      "effectiveDateTime": "2025-07-12T07:00:00.000+00:00",
      "valueQuantity": {
        "value": 39.0,
        "unit": "mg/dL"
      }
    },
    "request": {
      "method": "PUT",
      "url": "Observation/glucose-lab-test-mass-per-volume-22f7"
    }
  }, {
    "fullUrl": "https://madie.cms.gov/MeasureReport/61e97816-b812-4cb9-ad87-8336eb9877f9",
    "resource": {
      "resourceType": "MeasureReport",
      "id": "61e97816-b812-4cb9-ad87-8336eb9877f9",
      "meta": {
        "profile": [ "http://hl7.org/fhir/us/cqfmeasures/StructureDefinition/test-case-cqfm" ]
      },
      "contained": [ {
        "resourceType": "Parameters",
        "id": "3c8344d2-405f-4915-aa13-6ac2c3a8d1dc-parameters",
        "parameter": [ {
          "name": "subject",
          "valueString": "8eca4ab8-49f0-45e4-b1ee-dc34e54dd430"
        } ]
      } ],
      "extension": [ {
        "url": "http://hl7.org/fhir/us/cqfmeasures/StructureDefinition/cqfm-inputParameters",
        "valueReference": {
          "reference": "#3c8344d2-405f-4915-aa13-6ac2c3a8d1dc-parameters"
        }
      }, {
        "url": "http://hl7.org/fhir/us/cqfmeasures/StructureDefinition/cqfm-testCaseDescription",
        "valueMarkdown": "IP encounter, hypoglycemic administered, 1 glucose lab test with result LT 40. Meets Numerator."
      } ],
      "modifierExtension": [ {
        "url": "http://hl7.org/fhir/us/cqfmeasures/StructureDefinition/cqfm-isTestCase",
        "valueBoolean": true
      } ],
      "status": "complete",
      "type": "individual",
      "measure": "https://madie.cms.gov/Measure/HospitalHarmSevereHypoglycemiaFHIR",
      "period": {
        "start": "2025-01-01",
        "end": "2025-12-31"
      },
      "group": [ {
        "population": [ {
          "code": {
            "coding": [ {
              "system": "http://terminology.hl7.org/CodeSystem/measure-population",
              "code": "initial-population",
              "display": "Initial Population"
            } ]
          },
          "count": 1
        }, {
          "code": {
            "coding": [ {
              "system": "http://terminology.hl7.org/CodeSystem/measure-population",
              "code": "denominator",
              "display": "Denominator"
            } ]
          },
          "count": 1
        }, {
          "code": {
            "coding": [ {
              "system": "http://terminology.hl7.org/CodeSystem/measure-population",
              "code": "numerator",
              "display": "Numerator"
            } ]
          },
          "count": 1
        } ]
      } ],
      "evaluatedResource": [ {
        "reference": "Patient/8eca4ab8-49f0-45e4-b1ee-dc34e54dd430"
      }, {
        "reference": "Coverage/Coverage-1"
      }, {
        "reference": "Encounter/5bfc28feb8484648d6d7523b"
      }, {
        "reference": "MedicationAdministration/60130f0378b8e50000642ab8"
      }, {
        "reference": "Observation/glucose-lab-test-mass-per-volume-22f7"
      } ]
    },
    "request": {
      "method": "PUT",
      "url": "MeasureReport/61e97816-b812-4cb9-ad87-8336eb9877f9"
    }
  } ]
}