{
  "resourceType": "Bundle",
  "id": "61152a3b98086b7a79cbd7cc",
  "type": "transaction",
  "entry": [ {
    "fullUrl": "https://madie.cms.gov/Patient/d26ca5cd-9415-4c14-8a0b-947747c29ec2",
    "resource": {
      "resourceType": "Patient",
      "id": "d26ca5cd-9415-4c14-8a0b-947747c29ec2",
      "meta": {
        "profile": [ "http://hl7.org/fhir/us/qicore/StructureDefinition/qicore-patient" ]
      },
      "text": {
        "status": "generated",
        "div": "<div xmlns=\"http://www.w3.org/1999/xhtml\"><div class=\"hapiHeaderText\">MedsinEDNotPartofEncounter <b>IPPFAIL </b></div><table class=\"hapiPropertyTable\"><tbody><tr><td>Identifier</td><td>5b7cc01a21aeaa554832a51d3fe6107cf73735defd6e28caa799f2b9a67efcc4</td></tr><tr><td>Date of birth</td><td><span>31 July 1992</span></td></tr></tbody></table></div>"
      },
      "extension": [ {
        "url": "http://hl7.org/fhir/us/core/StructureDefinition/us-core-race",
        "extension": [ {
          "url": "ombCategory",
          "valueCoding": {
            "system": "urn:oid:2.16.840.1.113883.6.238",
            "code": "1002-5",
            "display": "American Indian or Alaska Native",
            "userSelected": true
          }
        }, {
          "url": "text",
          "valueString": "American Indian or Alaska Native"
        }, {
          "url": "detailed",
          "valueCoding": {
            "system": "urn:oid:2.16.840.1.113883.6.238",
            "code": "1653-5",
            "display": "Tohono O'Odham"
          }
        } ]
      }, {
        "url": "http://hl7.org/fhir/us/core/StructureDefinition/us-core-ethnicity",
        "extension": [ {
          "url": "ombCategory",
          "valueCoding": {
            "system": "urn:oid:2.16.840.1.113883.6.238",
            "code": "2135-2",
            "display": "Hispanic or Latino",
            "userSelected": true
          }
        }, {
          "url": "text",
          "valueString": "Hispanic or Latino"
        }, {
          "url": "detailed",
          "valueCoding": {
            "system": "urn:oid:2.16.840.1.113883.6.238",
            "code": "2153-5",
            "display": "Mexican American Indian"
          }
        } ]
      } ],
      "identifier": [ {
        "type": {
          "coding": [ {
            "system": "http://terminology.hl7.org/CodeSystem/v2-0203",
            "code": "MR"
          } ]
        },
        "system": "https://bonnie-fhir.healthit.gov/",
        "value": "61152a3b98086b7a79cbd7cc"
      } ],
      "active": true,
      "name": [ {
        "use": "usual",
        "family": "IPPFail",
        "given": [ "MedsinEDNotPartofEncounter" ]
      } ],
      "gender": "other",
      "birthDate": "1992-07-31"
    },
    "request": {
      "method": "PUT",
      "url": "Patient/d26ca5cd-9415-4c14-8a0b-947747c29ec2"
    }
  }, {
    "fullUrl": "https://madie.cms.gov/Encounter/5bfc28feb8484648d6d7528c",
    "resource": {
      "resourceType": "Encounter",
      "id": "5bfc28feb8484648d6d7528c",
      "meta": {
        "profile": [ "http://hl7.org/fhir/us/qicore/StructureDefinition/qicore-encounter" ]
      },
      "status": "finished",
      "class": {
        "system": "http://terminology.hl7.org/CodeSystem/v3-ActCode",
        "code": "IMP"
      },
      "type": [ {
        "coding": [ {
          "system": "http://snomed.info/sct",
          "code": "4525004"
        } ]
      } ],
      "subject": {
        "reference": "Patient/d26ca5cd-9415-4c14-8a0b-947747c29ec2"
      },
      "period": {
        "start": "2025-07-11T06:00:00+00:00",
        "end": "2025-07-11T07:00:00+00:00"
      }
    },
    "request": {
      "method": "PUT",
      "url": "Encounter/5bfc28feb8484648d6d7528c"
    }
  }, {
    "fullUrl": "https://madie.cms.gov/Encounter/5bfc28feb8484648d6d7528d",
    "resource": {
      "resourceType": "Encounter",
      "id": "5bfc28feb8484648d6d7528d",
      "meta": {
        "profile": [ "http://hl7.org/fhir/us/qicore/StructureDefinition/qicore-encounter" ]
      },
      "status": "finished",
      "class": {
        "system": "http://terminology.hl7.org/CodeSystem/v3-ActCode",
        "code": "IMP"
      },
      "type": [ {
        "coding": [ {
          "system": "http://snomed.info/sct",
          "code": "183452005"
        } ]
      } ],
      "subject": {
        "reference": "Patient/d26ca5cd-9415-4c14-8a0b-947747c29ec2"
      },
      "period": {
        "start": "2025-07-11T08:01:00+00:00",
        "end": "2025-07-11T09:00:00+00:00"
      }
    },
    "request": {
      "method": "PUT",
      "url": "Encounter/5bfc28feb8484648d6d7528d"
    }
  }, {
    "fullUrl": "https://madie.cms.gov/Encounter/5bfc28feb8484648d6d7528e",
    "resource": {
      "resourceType": "Encounter",
      "id": "5bfc28feb8484648d6d7528e",
      "meta": {
        "profile": [ "http://hl7.org/fhir/us/qicore/StructureDefinition/qicore-encounter" ]
      },
      "status": "finished",
      "class": {
        "system": "http://terminology.hl7.org/CodeSystem/v3-ActCode",
        "code": "IMP"
      },
      "type": [ {
        "coding": [ {
          "system": "http://snomed.info/sct",
          "code": "183452005"
        } ]
      } ],
      "subject": {
        "reference": "Patient/d26ca5cd-9415-4c14-8a0b-947747c29ec2"
      },
      "period": {
        "start": "2025-07-11T10:00:00.000+00:00",
        "end": "2025-07-14T21:00:00.000+00:00"
      }
    },
    "request": {
      "method": "PUT",
      "url": "Encounter/5bfc28feb8484648d6d7528e"
    }
  }, {
    "fullUrl": "https://madie.cms.gov/MedicationAdministration/6013090678b8e50000641e5d",
    "resource": {
      "resourceType": "MedicationAdministration",
      "id": "6013090678b8e50000641e5d",
      "meta": {
        "profile": [ "http://hl7.org/fhir/us/qicore/StructureDefinition/qicore-medicationadministration" ]
      },
      "status": "completed",
      "medicationCodeableConcept": {
        "coding": [ {
          "system": "http://www.nlm.nih.gov/research/umls/rxnorm",
          "code": "1361493",
          "display": "glimepiride 6 MG Oral Tablet",
          "userSelected": true
        } ]
      },
      "subject": {
        "reference": "Patient/d26ca5cd-9415-4c14-8a0b-947747c29ec2"
      },
      "effectivePeriod": {
        "start": "2025-07-11T06:00:00+00:00",
        "end": "2025-07-11T07:00:00+00:00"
      }
    },
    "request": {
      "method": "PUT",
      "url": "MedicationAdministration/6013090678b8e50000641e5d"
    }
  }, {
    "fullUrl": "https://madie.cms.gov/MeasureReport/08a74f1c-5460-46fd-a472-bd0b084e9a4e",
    "resource": {
      "resourceType": "MeasureReport",
      "id": "08a74f1c-5460-46fd-a472-bd0b084e9a4e",
      "meta": {
        "profile": [ "http://hl7.org/fhir/us/cqfmeasures/StructureDefinition/test-case-cqfm" ]
      },
      "contained": [ {
        "resourceType": "Parameters",
        "id": "e7d61565-c791-4081-907e-d35e0f6ed2ce-parameters",
        "parameter": [ {
          "name": "subject",
          "valueString": "d26ca5cd-9415-4c14-8a0b-947747c29ec2"
        } ]
      } ],
      "extension": [ {
        "url": "http://hl7.org/fhir/us/cqfmeasures/StructureDefinition/cqfm-inputParameters",
        "valueReference": {
          "reference": "#e7d61565-c791-4081-907e-d35e0f6ed2ce-parameters"
        }
      }, {
        "url": "http://hl7.org/fhir/us/cqfmeasures/StructureDefinition/cqfm-testCaseDescription",
        "valueMarkdown": "IP enc where pt given hypo med in ED, but ED not part of inpatient encounter, because  Observation start date/time was > 1 hour from ED end date/time. Observation to IP stay occurred but hypo meds given in ED don't count. Does not meet IPP criteria. "
      } ],
      "modifierExtension": [ {
        "url": "http://hl7.org/fhir/us/cqfmeasures/StructureDefinition/cqfm-isTestCase",
        "valueBoolean": true
      } ],
      "status": "complete",
      "type": "individual",
      "measure": "https://madie.cms.gov/Measure/HospitalHarmSevereHypoglycemiaFHIR",
      "period": {
        "start": "2025-01-01",
        "end": "2025-12-31"
      },
      "group": [ {
        "population": [ {
          "code": {
            "coding": [ {
              "system": "http://terminology.hl7.org/CodeSystem/measure-population",
              "code": "initial-population",
              "display": "Initial Population"
            } ]
          },
          "count": 0
        }, {
          "code": {
            "coding": [ {
              "system": "http://terminology.hl7.org/CodeSystem/measure-population",
              "code": "denominator",
              "display": "Denominator"
            } ]
          },
          "count": 0
        }, {
          "code": {
            "coding": [ {
              "system": "http://terminology.hl7.org/CodeSystem/measure-population",
              "code": "numerator",
              "display": "Numerator"
            } ]
          },
          "count": 0
        } ]
      } ],
      "evaluatedResource": [ {
        "reference": "Patient/d26ca5cd-9415-4c14-8a0b-947747c29ec2"
      }, {
        "reference": "Encounter/5bfc28feb8484648d6d7528c"
      }, {
        "reference": "Encounter/5bfc28feb8484648d6d7528d"
      }, {
        "reference": "Encounter/5bfc28feb8484648d6d7528e"
      }, {
        "reference": "MedicationAdministration/6013090678b8e50000641e5d"
      } ]
    },
    "request": {
      "method": "PUT",
      "url": "MeasureReport/08a74f1c-5460-46fd-a472-bd0b084e9a4e"
    }
  } ]
}