{"resourceType":"Bundle","id":"tests-101041d9-0db6-49cf-b31f-8f8711fa60a4-bundle","type":"transaction","entry":[{"fullUrl":"https://madie.cms.gov/Patient/101041d9-0db6-49cf-b31f-8f8711fa60a4","resource":{"resourceType":"Patient","id":"101041d9-0db6-49cf-b31f-8f8711fa60a4","meta":{"profile":["http://hl7.org/fhir/us/qicore/StructureDefinition/qicore-patient"]},"extension":[{"url":"http://hl7.org/fhir/us/core/StructureDefinition/us-core-race","extension":[{"url":"ombCategory","valueCoding":{"system":"urn:oid:2.16.840.1.113883.6.238","code":"1002-5","display":"American Indian or Alaska Native","userSelected":true}},{"url":"text","valueString":"American Indian or Alaska Native"}]},{"url":"http://hl7.org/fhir/us/core/StructureDefinition/us-core-ethnicity","extension":[{"url":"ombCategory","valueCoding":{"system":"urn:oid:2.16.840.1.113883.6.238","code":"2135-2","display":"Hispanic or Latino","userSelected":true}},{"url":"text","valueString":"Hispanic or Latino"}]}],"identifier":[{"type":{"coding":[{"system":"http://terminology.hl7.org/CodeSystem/v2-0203","code":"MR"}]},"system":"https://bonnie-fhir.healthit.gov/","value":"62f65a0f5efef5272905e705"}],"name":[{"family":"DENEXCEPPass","given":["AdultPatientReasonForNoDepressionScreenAge18"]}],"gender":"male","birthDate":"2007-12-31"},"request":{"method":"PUT","url":"Patient/101041d9-0db6-49cf-b31f-8f8711fa60a4"}},{"fullUrl":"https://madie.cms.gov/Encounter/encounter-to-screen-for-depression-d709","resource":{"resourceType":"Encounter","id":"311c73f2-ce1e-4d89-af5b-3114cf3edf56","meta":{"profile":["http://hl7.org/fhir/us/qicore/StructureDefinition/qicore-encounter"]},"status":"finished","class":{"system":"http://terminology.hl7.org/CodeSystem/v3-ActCode","code":"AMB","display":"ambulatory"},"type":[{"coding":[{"system":"http://snomed.info/sct","version":"2021-09","code":"10197000","display":"Psychiatric interview and evaluation (procedure)","userSelected":true}]}],"subject":{"reference":"Patient/101041d9-0db6-49cf-b31f-8f8711fa60a4"},"period":{"start":"2025-06-28T08:00:00.000+00:00","end":"2025-06-28T08:15:00.000+00:00"}},"request":{"method":"PUT","url":"Encounter/311c73f2-ce1e-4d89-af5b-3114cf3edf56"}},{"fullUrl":"https://madie.cms.gov/Observation/adult-depression-screening-assessment-d70a","resource":{"resourceType":"Observation","id":"bd62129f-4fc8-43bf-a868-cd02416e9bc3","meta":{"profile":["http://hl7.org/fhir/us/qicore/StructureDefinition/qicore-observationnotdone"]},"extension":[{"url":"http://hl7.org/fhir/us/qicore/StructureDefinition/qicore-notDoneReason","valueCodeableConcept":{"coding":[{"system":"http://snomed.info/sct","code":"720834000","display":"Depression screening declined (situation)","userSelected":true}]}}],"status":"cancelled","category":[{"coding":[{"system":"http://terminology.hl7.org/CodeSystem/observation-category","code":"procedure","display":"Procedure"}]}],"code":{"coding":[{"system":"http://loinc.org","code":"73832-8","display":"Adult depression screening assessment","userSelected":true}]},"subject":{"reference":"Patient/101041d9-0db6-49cf-b31f-8f8711fa60a4"},"issued":"2025-06-28T08:00:00.000+00:00","valueBoolean":true},"request":{"method":"PUT","url":"Observation/bd62129f-4fc8-43bf-a868-cd02416e9bc3"}},{"fullUrl":"https://madie.cms.gov/Coverage/1","resource":{"resourceType":"Coverage","id":"27b9b7ad-a47f-4de6-badb-7a2880263e10","meta":{"profile":["http://hl7.org/fhir/us/qicore/StructureDefinition/qicore-coverage"]},"status":"active","beneficiary":{"reference":"Patient/101041d9-0db6-49cf-b31f-8f8711fa60a4"},"payor":[{"reference":"Organization/26111c91-b0e2-476c-a20b-e3f39799f8f5"}]},"request":{"method":"PUT","url":"Coverage/27b9b7ad-a47f-4de6-badb-7a2880263e10"}},{"fullUrl":"https://madie.cms.gov/Organization/123456","resource":{"resourceType":"Organization","id":"26111c91-b0e2-476c-a20b-e3f39799f8f5","meta":{"profile":["http://hl7.org/fhir/us/qicore/StructureDefinition/qicore-organization"]},"identifier":[{"use":"temp","system":"urn:oid:2.16.840.1.113883.4.4","value":"21-3259825"}],"active":true,"type":[{"coding":[{"system":"http://terminology.hl7.org/CodeSystem/organization-type","code":"pay","display":"Payer"}]}],"name":"Blue Cross Blue Shield of Texas","telecom":[{"system":"phone","value":"(+1) 972-766-6900"}],"address":[{"use":"billing","type":"postal","line":["P.O. Box 660044"],"city":"Dallas","state":"TX","postalCode":"75266-0044","country":"USA"}]},"request":{"method":"PUT","url":"Organization/26111c91-b0e2-476c-a20b-e3f39799f8f5"}},{"fullUrl":"https://madie.cms.gov/Practitioner/practitioner-123456","resource":{"resourceType":"Practitioner","id":"a26be075-3e1a-44f0-974a-26793722d148","meta":{"profile":["http://hl7.org/fhir/us/qicore/StructureDefinition/qicore-practitioner"]},"identifier":[{"system":"http://hl7.org/fhir/sid/us-npi","value":"123456"}],"name":[{"family":"Evil","prefix":["Dr"]}]},"request":{"method":"PUT","url":"Practitioner/a26be075-3e1a-44f0-974a-26793722d148"}},{"fullUrl":"https://madie.cms.gov/MeasureReport/c4659b87-119f-4996-a9f8-cc0c93a8cc1d","resource":{"resourceType":"MeasureReport","id":"c4659b87-119f-4996-a9f8-cc0c93a8cc1d","meta":{"profile":["http://hl7.org/fhir/us/cqfmeasures/StructureDefinition/test-case-cqfm"]},"contained":[{"resourceType":"Parameters","id":"f1a5a032-b329-4e04-8477-6d4cdaa9ead2-parameters","parameter":[{"name":"subject","valueString":"101041d9-0db6-49cf-b31f-8f8711fa60a4"}]}],"extension":[{"url":"http://hl7.org/fhir/us/cqfmeasures/StructureDefinition/cqfm-inputParameters","valueReference":{"reference":"#f1a5a032-b329-4e04-8477-6d4cdaa9ead2-parameters"}},{"url":"http://hl7.org/fhir/us/cqfmeasures/StructureDefinition/cqfm-testCaseDescription","valueMarkdown":"18 yo male with patient reason for not screening for depression - 18 on last day MP."}],"modifierExtension":[{"url":"http://hl7.org/fhir/us/cqfmeasures/StructureDefinition/cqfm-isTestCase","valueBoolean":true}],"status":"complete","type":"individual","measure":"https://madie.cms.gov/Measure/PCSDepressionScreenAndFollowUpFHIR","period":{"start":"2025-01-01","end":"2025-12-31"},"group":[{"population":[{"code":{"coding":[{"system":"http://terminology.hl7.org/CodeSystem/measure-population","code":"initial-population","display":"Initial Population"}]},"count":1},{"code":{"coding":[{"system":"http://terminology.hl7.org/CodeSystem/measure-population","code":"denominator","display":"Denominator"}]},"count":1},{"code":{"coding":[{"system":"http://terminology.hl7.org/CodeSystem/measure-population","code":"denominator-exclusion","display":"Denominator Exclusion"}]},"count":0},{"code":{"coding":[{"system":"http://terminology.hl7.org/CodeSystem/measure-population","code":"numerator","display":"Numerator"}]},"count":0},{"code":{"coding":[{"system":"http://terminology.hl7.org/CodeSystem/measure-population","code":"denominator-exception","display":"Denominator Exception"}]},"count":1}]}]},"request":{"method":"PUT","url":"MeasureReport/c4659b87-119f-4996-a9f8-cc0c93a8cc1d"}}]}