{"resourceType":"Bundle","id":"tests-e6a46d78-cf52-4384-ab95-225d0524210f-bundle","type":"transaction","entry":[{"fullUrl":"https://madie.cms.gov/Patient/e6a46d78-cf52-4384-ab95-225d0524210f","resource":{"resourceType":"Patient","id":"e6a46d78-cf52-4384-ab95-225d0524210f","meta":{"profile":["http://hl7.org/fhir/us/qicore/StructureDefinition/qicore-patient"]},"extension":[{"url":"http://hl7.org/fhir/us/core/StructureDefinition/us-core-race","extension":[{"url":"ombCategory","valueCoding":{"system":"urn:oid:2.16.840.1.113883.6.238","code":"1002-5","display":"American Indian or Alaska Native","userSelected":true}},{"url":"text","valueString":"American Indian or Alaska Native"}]},{"url":"http://hl7.org/fhir/us/core/StructureDefinition/us-core-ethnicity","extension":[{"url":"ombCategory","valueCoding":{"system":"urn:oid:2.16.840.1.113883.6.238","code":"2135-2","display":"Hispanic or Latino","userSelected":true}},{"url":"text","valueString":"Hispanic or Latino"}]}],"identifier":[{"type":{"coding":[{"system":"http://terminology.hl7.org/CodeSystem/v2-0203","code":"MR"}]},"system":"https://bonnie-fhir.healthit.gov/","value":"62f68555bc6a474306a95b44"}],"name":[{"family":"NUMERFail","given":["12yoPosAdolDepScreenandFUPrescript3DAfterEndOfEnc"]}],"gender":"male","birthDate":"2013-01-01"},"request":{"method":"PUT","url":"Patient/e6a46d78-cf52-4384-ab95-225d0524210f"}},{"fullUrl":"https://madie.cms.gov/Encounter/encounter-to-screen-for-depression-cf2d","resource":{"resourceType":"Encounter","id":"encounter-to-screen-for-depression-cf2d","meta":{"profile":["http://hl7.org/fhir/us/qicore/StructureDefinition/qicore-encounter"]},"status":"finished","class":{"system":"http://terminology.hl7.org/CodeSystem/v3-ActCode","code":"AMB","display":"ambulatory"},"type":[{"coding":[{"system":"http://snomed.info/sct","version":"2021-09","code":"10197000","display":"Psychiatric interview and evaluation (procedure)","userSelected":true}]}],"subject":{"reference":"Patient/e6a46d78-cf52-4384-ab95-225d0524210f"},"period":{"start":"2025-06-21T08:00:00.000+00:00","end":"2025-06-21T08:15:00.000+00:00"}},"request":{"method":"PUT","url":"Encounter/encounter-to-screen-for-depression-cf2d"}},{"fullUrl":"https://madie.cms.gov/Observation/adolescent-depression-screening-assessment-cf37","resource":{"resourceType":"Observation","id":"adolescent-depression-screening-assessment-cf37","meta":{"profile":["http://hl7.org/fhir/us/qicore/StructureDefinition/qicore-observation"]},"status":"final","category":[{"coding":[{"system":"http://terminology.hl7.org/CodeSystem/observation-category","code":"procedure","display":"Procedure"}]}],"code":{"coding":[{"system":"http://loinc.org","code":"73831-0","display":"Adolescent depression screening assessment","userSelected":true}]},"subject":{"reference":"Patient/e6a46d78-cf52-4384-ab95-225d0524210f"},"effectiveDateTime":"2013-06-15T08:00:00.000+00:00","valueCodeableConcept":{"coding":[{"system":"http://snomed.info/sct","code":"428181000124104","display":"Depression screening positive (finding)","userSelected":true}]}},"request":{"method":"PUT","url":"Observation/adolescent-depression-screening-assessment-cf37"}},{"fullUrl":"https://madie.cms.gov/MedicationRequest/adolescent-depression-medications-cf38","resource":{"resourceType":"MedicationRequest","id":"adolescent-depression-medications-cf38","meta":{"profile":["http://hl7.org/fhir/us/qicore/StructureDefinition/qicore-medicationrequest"]},"status":"active","intent":"order","doNotPerform":false,"medicationCodeableConcept":{"coding":[{"system":"http://www.nlm.nih.gov/research/umls/rxnorm","code":"1190110","display":"fluoxetine 60 MG Oral Tablet","userSelected":true}]},"subject":{"reference":"Patient/e6a46d78-cf52-4384-ab95-225d0524210f"},"authoredOn":"2025-06-24T08:00:00.000+00:00","requester":{"reference":"Practitioner/f007","display":"Patrick Pump"}},"request":{"method":"PUT","url":"MedicationRequest/adolescent-depression-medications-cf38"}},{"fullUrl":"https://madie.cms.gov/MeasureReport/59ead6fb-74a6-44b8-96e5-2a482370644a","resource":{"resourceType":"MeasureReport","id":"59ead6fb-74a6-44b8-96e5-2a482370644a","meta":{"profile":["http://hl7.org/fhir/us/cqfmeasures/StructureDefinition/test-case-cqfm"]},"contained":[{"resourceType":"Parameters","id":"16eca1a3-c3ca-4659-88fe-f4bcb1286d62-parameters","parameter":[{"name":"subject","valueString":"e6a46d78-cf52-4384-ab95-225d0524210f"}]}],"extension":[{"url":"http://hl7.org/fhir/us/cqfmeasures/StructureDefinition/cqfm-inputParameters","valueReference":{"reference":"#16eca1a3-c3ca-4659-88fe-f4bcb1286d62-parameters"}},{"url":"http://hl7.org/fhir/us/cqfmeasures/StructureDefinition/cqfm-testCaseDescription","valueMarkdown":"12yo with previous positive adolescent depression screening and medication request follow up occurs 3 days after end of encounter"}],"modifierExtension":[{"url":"http://hl7.org/fhir/us/cqfmeasures/StructureDefinition/cqfm-isTestCase","valueBoolean":true}],"status":"complete","type":"individual","measure":"https://madie.cms.gov/Measure/PCSDepressionScreenAndFollowUpFHIR","period":{"start":"2025-01-01","end":"2025-12-31"},"group":[{"population":[{"code":{"coding":[{"system":"http://terminology.hl7.org/CodeSystem/measure-population","code":"initial-population","display":"Initial Population"}]},"count":1},{"code":{"coding":[{"system":"http://terminology.hl7.org/CodeSystem/measure-population","code":"denominator","display":"Denominator"}]},"count":1},{"code":{"coding":[{"system":"http://terminology.hl7.org/CodeSystem/measure-population","code":"denominator-exclusion","display":"Denominator Exclusion"}]},"count":0},{"code":{"coding":[{"system":"http://terminology.hl7.org/CodeSystem/measure-population","code":"numerator","display":"Numerator"}]},"count":0},{"code":{"coding":[{"system":"http://terminology.hl7.org/CodeSystem/measure-population","code":"denominator-exception","display":"Denominator Exception"}]},"count":0}]}],"evaluatedResource":[{"reference":"https://madie.cms.gov/Patient/e6a46d78-cf52-4384-ab95-225d0524210f"},{"reference":"https://madie.cms.gov/Encounter/encounter-to-screen-for-depression-cf2d"},{"reference":"https://madie.cms.gov/Observation/adolescent-depression-screening-assessment-cf37"},{"reference":"https://madie.cms.gov/MedicationRequest/adolescent-depression-medications-cf38"}]},"request":{"method":"PUT","url":"MeasureReport/59ead6fb-74a6-44b8-96e5-2a482370644a"}}]}