{
  "resourceType": "Bundle",
  "id": "62d95451f0347d1abcae6c04",
  "type": "transaction",
  "entry": [ {
    "fullUrl": "https://madie.cms.gov/Patient/86618b52-e0cc-4e90-b48c-cd64bbae8973",
    "resource": {
      "resourceType": "Patient",
      "id": "86618b52-e0cc-4e90-b48c-cd64bbae8973",
      "meta": {
        "profile": [ "http://hl7.org/fhir/us/qicore/StructureDefinition/qicore-patient" ]
      },
      "extension": [ {
        "url": "http://hl7.org/fhir/us/core/StructureDefinition/us-core-race",
        "extension": [ {
          "url": "ombCategory",
          "valueCoding": {
            "system": "urn:oid:2.16.840.1.113883.6.238",
            "code": "2076-8",
            "display": "Native Hawaiian or Other Pacific Islander",
            "userSelected": true
          }
        }, {
          "url": "text",
          "valueString": "Native Hawaiian or Other Pacific Islander"
        } ]
      }, {
        "url": "http://hl7.org/fhir/us/core/StructureDefinition/us-core-ethnicity",
        "extension": [ {
          "url": "ombCategory",
          "valueCoding": {
            "system": "urn:oid:2.16.840.1.113883.6.238",
            "code": "2135-2",
            "display": "Hispanic or Latino",
            "userSelected": true
          }
        }, {
          "url": "text",
          "valueString": "Hispanic or Latino"
        } ]
      } ],
      "identifier": [ {
        "type": {
          "coding": [ {
            "system": "http://terminology.hl7.org/CodeSystem/v2-0203",
            "code": "MR"
          } ]
        },
        "system": "https://bonnie-fhir.healthit.gov/",
        "value": "62d95451f0347d1abcae6c04"
      } ],
      "name": [ {
        "family": "NUMERandDENEXCEPPass",
        "given": [ "2EncsSecondDeclined" ]
      } ],
      "gender": "male",
      "birthDate": "1975-01-01"
    },
    "request": {
      "method": "PUT",
      "url": "Patient/86618b52-e0cc-4e90-b48c-cd64bbae8973"
    }
  }, {
    "fullUrl": "https://madie.cms.gov/Encounter/encounter-to-screen-for-blood-pressure-975f",
    "resource": {
      "resourceType": "Encounter",
      "id": "encounter-to-screen-for-blood-pressure-975f",
      "meta": {
        "profile": [ "http://hl7.org/fhir/us/qicore/StructureDefinition/qicore-encounter" ]
      },
      "status": "finished",
      "class": {
        "system": "http://terminology.hl7.org/CodeSystem/v3-ActCode",
        "code": "AMB",
        "display": "ambulatory"
      },
      "type": [ {
        "coding": [ {
          "system": "http://snomed.info/sct",
          "version": "2022-03",
          "code": "103705002",
          "display": "Patient status observation (procedure)",
          "userSelected": true
        } ]
      } ],
      "subject": {
        "reference": "Patient/86618b52-e0cc-4e90-b48c-cd64bbae8973"
      },
      "period": {
        "start": "2025-01-01T08:00:00.000+00:00",
        "end": "2025-01-01T08:45:00.000+00:00"
      }
    },
    "request": {
      "method": "PUT",
      "url": "Encounter/encounter-to-screen-for-blood-pressure-975f"
    }
  }, {
    "fullUrl": "https://madie.cms.gov/Observation/blood-pressure-1",
    "resource": {
      "resourceType": "Observation",
      "id": "blood-pressure-1",
      "meta": {
        "profile": [ "http://hl7.org/fhir/StructureDefinition/bp" ]
      },
      "status": "final",
      "category": [ {
        "coding": [ {
          "system": "http://terminology.hl7.org/CodeSystem/observation-category",
          "code": "vital-signs",
          "display": "Vital Signs"
        } ],
        "text": "Vital Signs"
      } ],
      "code": {
        "coding": [ {
          "system": "http://loinc.org",
          "code": "85354-9",
          "display": "Blood pressure panel"
        } ]
      },
      "subject": {
        "reference": "Patient/86618b52-e0cc-4e90-b48c-cd64bbae8973"
      },
      "effectiveDateTime": "2025-01-01T08:01:00.000Z",
      "component": [ {
        "code": {
          "coding": [ {
            "system": "http://loinc.org",
            "code": "8480-6",
            "display": "Systolic blood pressure"
          } ]
        },
        "valueQuantity": {
          "value": 130,
          "unit": "mmHg",
          "system": "http://unitsofmeasure.org",
          "code": "mm[Hg]"
        }
      }, {
        "code": {
          "coding": [ {
            "system": "http://loinc.org",
            "code": "8462-4",
            "display": "Diastolic blood pressure"
          } ]
        },
        "valueQuantity": {
          "value": 80,
          "unit": "mmHg",
          "system": "http://unitsofmeasure.org",
          "code": "mm[Hg]"
        }
      } ]
    },
    "request": {
      "method": "PUT",
      "url": "Observation/blood-pressure-1"
    }
  }, {
    "fullUrl": "https://madie.cms.gov/ServiceRequest/referral-or-counseling-for-alcohol-consumption-1",
    "resource": {
      "resourceType": "ServiceRequest",
      "id": "referral-or-counseling-for-alcohol-consumption-1",
      "meta": {
        "profile": [ "http://hl7.org/fhir/us/qicore/StructureDefinition/qicore-servicerequest" ]
      },
      "status": "active",
      "intent": "order",
      "doNotPerform": true,
      "code": {
        "coding": [ {
          "system": "http://snomed.info/sct",
          "version": "2022-03",
          "code": "20093000",
          "display": "Alcohol rehabilitation and detoxification (regime/therapy)",
          "userSelected": true
        } ]
      },
      "subject": {
        "reference": "Patient/86618b52-e0cc-4e90-b48c-cd64bbae8973"
      },
      "authoredOn": "2025-01-01T08:30:00.000+00:00"
    },
    "request": {
      "method": "PUT",
      "url": "ServiceRequest/referral-or-counseling-for-alcohol-consumption-1"
    }
  }, {
    "fullUrl": "https://madie.cms.gov/ServiceRequest/follow-up-within-4-weeks-9762",
    "resource": {
      "resourceType": "ServiceRequest",
      "id": "follow-up-within-4-weeks-9762",
      "meta": {
        "profile": [ "http://hl7.org/fhir/us/qicore/StructureDefinition/qicore-servicerequest" ]
      },
      "status": "active",
      "intent": "order",
      "doNotPerform": true,
      "code": {
        "coding": [ {
          "system": "http://snomed.info/sct",
          "version": "2022-03",
          "code": "183617005",
          "display": "Follow-up 1 day (finding)",
          "userSelected": true
        } ]
      },
      "subject": {
        "reference": "Patient/86618b52-e0cc-4e90-b48c-cd64bbae8973"
      },
      "authoredOn": "2025-01-01T08:30:00.000+00:00"
    },
    "request": {
      "method": "PUT",
      "url": "ServiceRequest/follow-up-within-4-weeks-9762"
    }
  }, {
    "fullUrl": "https://madie.cms.gov/Encounter/encounter-to-screen-for-blood-pressure-69d7",
    "resource": {
      "resourceType": "Encounter",
      "id": "encounter-to-screen-for-blood-pressure-69d7",
      "meta": {
        "profile": [ "http://hl7.org/fhir/us/qicore/StructureDefinition/qicore-encounter" ]
      },
      "status": "finished",
      "class": {
        "system": "http://terminology.hl7.org/CodeSystem/v3-ActCode",
        "code": "AMB",
        "display": "ambulatory"
      },
      "type": [ {
        "coding": [ {
          "system": "http://snomed.info/sct",
          "version": "2022-03",
          "code": "103705002",
          "display": "Patient status observation (procedure)",
          "userSelected": true
        } ]
      } ],
      "subject": {
        "reference": "Patient/86618b52-e0cc-4e90-b48c-cd64bbae8973"
      },
      "period": {
        "start": "2025-12-31T10:00:00.000+00:00",
        "end": "2025-12-31T10:45:00.000+00:00"
      }
    },
    "request": {
      "method": "PUT",
      "url": "Encounter/encounter-to-screen-for-blood-pressure-69d7"
    }
  }, {
    "fullUrl": "https://madie.cms.gov/Observation/blood-pressure-2",
    "resource": {
      "resourceType": "Observation",
      "id": "blood-pressure-2",
      "meta": {
        "profile": [ "http://hl7.org/fhir/StructureDefinition/bp" ]
      },
      "status": "final",
      "category": [ {
        "coding": [ {
          "system": "http://terminology.hl7.org/CodeSystem/observation-category",
          "code": "vital-signs",
          "display": "Vital Signs"
        } ],
        "text": "Vital Signs"
      } ],
      "code": {
        "coding": [ {
          "system": "http://loinc.org",
          "code": "85354-9",
          "display": "Blood pressure panel"
        } ]
      },
      "subject": {
        "reference": "Patient/86618b52-e0cc-4e90-b48c-cd64bbae8973"
      },
      "effectiveDateTime": "2025-12-31T10:01:00.000Z",
      "component": [ {
        "code": {
          "coding": [ {
            "system": "http://loinc.org",
            "code": "8480-6",
            "display": "Systolic blood pressure"
          } ]
        },
        "valueQuantity": {
          "value": 160,
          "unit": "mmHg",
          "system": "http://unitsofmeasure.org",
          "code": "mm[Hg]"
        }
      }, {
        "code": {
          "coding": [ {
            "system": "http://loinc.org",
            "code": "8462-4",
            "display": "Diastolic blood pressure"
          } ]
        },
        "valueQuantity": {
          "value": 90,
          "unit": "mmHg",
          "system": "http://unitsofmeasure.org",
          "code": "mm[Hg]"
        }
      } ]
    },
    "request": {
      "method": "PUT",
      "url": "Observation/blood-pressure-2"
    }
  }, {
    "fullUrl": "https://madie.cms.gov/ServiceRequest/referral-or-counseling-for-alcohol-consumption-69db",
    "resource": {
      "resourceType": "ServiceRequest",
      "id": "referral-or-counseling-for-alcohol-consumption-69db",
      "meta": {
        "profile": [ "http://hl7.org/fhir/us/qicore/StructureDefinition/qicore-servicenotrequested" ]
      },
      "extension": [ {
        "url": "http://hl7.org/fhir/us/qicore/StructureDefinition/qicore-doNotPerformReason",
        "valueCodeableConcept": {
          "coding": [ {
            "system": "http://snomed.info/sct",
            "version": "2022-03",
            "code": "183945002",
            "display": "Procedure declined for religious reason (situation)",
            "userSelected": true
          } ]
        }
      } ],
      "status": "completed",
      "intent": "order",
      "doNotPerform": true,
      "code": {
        "coding": [ {
          "system": "http://snomed.info/sct",
          "version": "2022-03",
          "code": "20093000",
          "display": "Alcohol rehabilitation and detoxification (regime/therapy)",
          "userSelected": true
        } ]
      },
      "subject": {
        "reference": "Patient/86618b52-e0cc-4e90-b48c-cd64bbae8973"
      },
      "authoredOn": "2025-12-31T10:44:00.000+00:00"
    },
    "request": {
      "method": "PUT",
      "url": "ServiceRequest/referral-or-counseling-for-alcohol-consumption-69db"
    }
  }, {
    "fullUrl": "https://madie.cms.gov/ServiceRequest/referral-to-primary-care-or-alternate-provider-6c09",
    "resource": {
      "resourceType": "ServiceRequest",
      "id": "referral-to-primary-care-or-alternate-provider-6c09",
      "meta": {
        "profile": [ "http://hl7.org/fhir/us/qicore/StructureDefinition/qicore-servicenotrequested" ]
      },
      "extension": [ {
        "url": "http://hl7.org/fhir/us/qicore/StructureDefinition/qicore-doNotPerformReason",
        "valueCodeableConcept": {
          "coding": [ {
            "system": "http://snomed.info/sct",
            "code": "105480006",
            "display": "Procedure declined by patient (situation)",
            "userSelected": true
          } ]
        }
      } ],
      "status": "completed",
      "intent": "order",
      "doNotPerform": true,
      "code": {
        "coding": [ {
          "system": "http://snomed.info/sct",
          "version": "2022-03",
          "code": "134403003",
          "display": "Urgent referral (procedure)",
          "userSelected": true
        } ]
      },
      "subject": {
        "reference": "Patient/86618b52-e0cc-4e90-b48c-cd64bbae8973"
      },
      "authoredOn": "2025-12-31T10:20:00.000+00:00"
    },
    "request": {
      "method": "PUT",
      "url": "ServiceRequest/referral-to-primary-care-or-alternate-provider-6c09"
    }
  }, {
    "fullUrl": "https://madie.cms.gov/Coverage/1",
    "resource": {
      "resourceType": "Coverage",
      "id": "Coverage-1",
      "meta": {
        "profile": [ "http://hl7.org/fhir/us/qicore/StructureDefinition/qicore-coverage" ]
      },
      "status": "active",
      "beneficiary": {
        "reference": "Patient/86618b52-e0cc-4e90-b48c-cd64bbae8973"
      },
      "payor": [ {
        "reference": "Organization/Org-123456"
      } ]
    },
    "request": {
      "method": "PUT",
      "url": "Coverage/Coverage-1"
    }
  }, {
    "fullUrl": "https://madie.cms.gov/Organization/123456",
    "resource": {
      "resourceType": "Organization",
      "id": "Org-123456",
      "meta": {
        "profile": [ "http://hl7.org/fhir/us/qicore/StructureDefinition/qicore-organization" ]
      },
      "identifier": [ {
        "use": "temp",
        "system": "urn:oid:2.16.840.1.113883.4.4",
        "value": "21-3259825"
      } ],
      "active": true,
      "type": [ {
        "coding": [ {
          "system": "http://terminology.hl7.org/CodeSystem/organization-type",
          "code": "pay",
          "display": "Payer"
        } ]
      } ],
      "name": "Blue Cross Blue Shield of Texas",
      "telecom": [ {
        "system": "phone",
        "value": "(+1) 972-766-6900"
      } ],
      "address": [ {
        "use": "billing",
        "type": "postal",
        "line": [ "P.O. Box 660044" ],
        "city": "Dallas",
        "state": "TX",
        "postalCode": "75266-0044",
        "country": "USA"
      } ]
    },
    "request": {
      "method": "PUT",
      "url": "Organization/Org-123456"
    }
  }, {
    "fullUrl": "https://madie.cms.gov/Practitioner/practitioner-123456",
    "resource": {
      "resourceType": "Practitioner",
      "id": "practitioner-123456",
      "meta": {
        "profile": [ "http://hl7.org/fhir/us/qicore/StructureDefinition/qicore-practitioner" ]
      },
      "identifier": [ {
        "system": "http://hl7.org/fhir/sid/us-npi",
        "value": "123456"
      } ],
      "name": [ {
        "family": "Evil",
        "prefix": [ "Dr" ]
      } ]
    },
    "request": {
      "method": "PUT",
      "url": "Practitioner/practitioner-123456"
    }
  }, {
    "fullUrl": "https://madie.cms.gov/MeasureReport/047d8e2d-9e2d-45c1-9c08-6d4667762005",
    "resource": {
      "resourceType": "MeasureReport",
      "id": "047d8e2d-9e2d-45c1-9c08-6d4667762005",
      "meta": {
        "profile": [ "http://hl7.org/fhir/us/cqfmeasures/StructureDefinition/test-case-cqfm" ]
      },
      "contained": [ {
        "resourceType": "Parameters",
        "id": "1cd84f4c-5d73-4ada-b518-2cd49fdbf14b-parameters",
        "parameter": [ {
          "name": "subject",
          "valueString": "86618b52-e0cc-4e90-b48c-cd64bbae8973"
        } ]
      } ],
      "extension": [ {
        "url": "http://hl7.org/fhir/us/cqfmeasures/StructureDefinition/cqfm-inputParameters",
        "valueReference": {
          "reference": "#1cd84f4c-5d73-4ada-b518-2cd49fdbf14b-parameters"
        }
      }, {
        "url": "http://hl7.org/fhir/us/cqfmeasures/StructureDefinition/cqfm-testCaseDescription",
        "valueMarkdown": "1st Enc. 01/01 0800-0845 during MP with BP readings 130/80, follow up within 4 wks. referral to detox - passes numer\n2nd Enc. 12/31 1000-1045 during MP, BP 160/90, pt. declined referral and detox. pass denexcep"
      } ],
      "modifierExtension": [ {
        "url": "http://hl7.org/fhir/us/cqfmeasures/StructureDefinition/cqfm-isTestCase",
        "valueBoolean": true
      } ],
      "status": "complete",
      "type": "individual",
      "measure": "https://madie.cms.gov/Measure/PCSBPScreeningFollowUpFHIR",
      "period": {
        "start": "2025-01-01",
        "end": "2025-12-31"
      },
      "group": [ {
        "population": [ {
          "code": {
            "coding": [ {
              "system": "http://terminology.hl7.org/CodeSystem/measure-population",
              "code": "initial-population",
              "display": "Initial Population"
            } ]
          },
          "count": 2
        }, {
          "code": {
            "coding": [ {
              "system": "http://terminology.hl7.org/CodeSystem/measure-population",
              "code": "denominator",
              "display": "Denominator"
            } ]
          },
          "count": 2
        }, {
          "code": {
            "coding": [ {
              "system": "http://terminology.hl7.org/CodeSystem/measure-population",
              "code": "denominator-exclusion",
              "display": "Denominator Exclusion"
            } ]
          },
          "count": 0
        }, {
          "code": {
            "coding": [ {
              "system": "http://terminology.hl7.org/CodeSystem/measure-population",
              "code": "numerator",
              "display": "Numerator"
            } ]
          },
          "count": 1
        }, {
          "code": {
            "coding": [ {
              "system": "http://terminology.hl7.org/CodeSystem/measure-population",
              "code": "denominator-exception",
              "display": "Denominator Exception"
            } ]
          },
          "count": 1
        } ]
      } ],
      "evaluatedResource": [ {
        "reference": "Patient/86618b52-e0cc-4e90-b48c-cd64bbae8973"
      }, {
        "reference": "Encounter/encounter-to-screen-for-blood-pressure-975f"
      }, {
        "reference": "Observation/blood-pressure-1"
      }, {
        "reference": "ServiceRequest/referral-or-counseling-for-alcohol-consumption-1"
      }, {
        "reference": "ServiceRequest/follow-up-within-4-weeks-9762"
      }, {
        "reference": "Encounter/encounter-to-screen-for-blood-pressure-69d7"
      }, {
        "reference": "Observation/blood-pressure-2"
      }, {
        "reference": "ServiceRequest/referral-or-counseling-for-alcohol-consumption-69db"
      }, {
        "reference": "ServiceRequest/referral-to-primary-care-or-alternate-provider-6c09"
      }, {
        "reference": "Coverage/Coverage-1"
      }, {
        "reference": "Organization/Org-123456"
      }, {
        "reference": "Practitioner/practitioner-123456"
      } ]
    },
    "request": {
      "method": "PUT",
      "url": "MeasureReport/047d8e2d-9e2d-45c1-9c08-6d4667762005"
    }
  } ]
}