{
  "resourceType": "Bundle",
  "id": "6109658e98086b538055b9db",
  "type": "transaction",
  "entry": [ {
    "fullUrl": "Patient/20d535da-db77-47c2-bc50-d36ed8a29270",
    "resource": {
      "resourceType": "Patient",
      "id": "20d535da-db77-47c2-bc50-d36ed8a29270",
      "meta": {
        "profile": [ "http://hl7.org/fhir/us/qicore/StructureDefinition/qicore-patient" ]
      },
      "extension": [ {
        "url": "http://hl7.org/fhir/us/core/StructureDefinition/us-core-race",
        "extension": [ {
          "url": "ombCategory",
          "valueCoding": {
            "system": "urn:oid:2.16.840.1.113883.6.238",
            "code": "2106-3",
            "display": "White",
            "userSelected": true
          }
        }, {
          "url": "text",
          "valueString": "White"
        } ]
      }, {
        "url": "http://hl7.org/fhir/us/core/StructureDefinition/us-core-ethnicity",
        "extension": [ {
          "url": "ombCategory",
          "valueCoding": {
            "system": "urn:oid:2.16.840.1.113883.6.238",
            "code": "2186-5",
            "display": "Not Hispanic or Latino",
            "userSelected": true
          }
        }, {
          "url": "text",
          "valueString": "Not Hispanic or Latino"
        } ]
      } ],
      "identifier": [ {
        "type": {
          "coding": [ {
            "system": "http://terminology.hl7.org/CodeSystem/v2-0203",
            "code": "MR"
          } ]
        },
        "system": "https://bonnie-fhir.healthit.gov/",
        "value": "6109658e98086b538055b9db"
      } ],
      "active": true,
      "name": [ {
        "use": "usual",
        "family": "IPPFail",
        "given": [ "PatientLT18atMPEdge" ]
      } ],
      "gender": "male",
      "birthDate": "2007-01-02"
    },
    "request": {
      "method": "PUT",
      "url": "Patient/20d535da-db77-47c2-bc50-d36ed8a29270"
    }
  }, {
    "fullUrl": "Condition/5c9a433bb8484623838502b4",
    "resource": {
      "resourceType": "Condition",
      "id": "5c9a433bb8484623838502b4",
      "meta": {
        "profile": [ "http://hl7.org/fhir/us/qicore/StructureDefinition/qicore-condition" ]
      },
      "clinicalStatus": {
        "coding": [ {
          "system": "http://terminology.hl7.org/CodeSystem/condition-clinical",
          "code": "active",
          "display": "active",
          "userSelected": true
        } ]
      },
      "category": [ {
        "coding": [ {
          "system": "http://terminology.hl7.org/CodeSystem/condition-category",
          "code": "encounter-diagnosis",
          "display": "Encounter Diagnosis",
          "userSelected": true
        } ]
      } ],
      "code": {
        "coding": [ {
          "system": "http://hl7.org/fhir/sid/icd-10-cm",
          "code": "H40.10X0"
        } ]
      },
      "subject": {
        "reference": "Patient/20d535da-db77-47c2-bc50-d36ed8a29270"
      },
      "onsetDateTime": "2012-08-27T13:00:00+00:00"
    },
    "request": {
      "method": "PUT",
      "url": "Condition/5c9a433bb8484623838502b4"
    }
  }, {
    "fullUrl": "Observation/5c9a433bb8484623838502b6",
    "resource": {
      "resourceType": "Observation",
      "id": "5c9a433bb8484623838502b6",
      "meta": {
        "profile": [ "http://hl7.org/fhir/us/qicore/StructureDefinition/qicore-observation" ]
      },
      "status": "final",
      "category": [ {
        "coding": [ {
          "system": "http://terminology.hl7.org/CodeSystem/observation-category",
          "code": "laboratory",
          "display": "Laboratory",
          "userSelected": true
        } ]
      } ],
      "code": {
        "coding": [ {
          "system": "http://loinc.org",
          "code": "71487-3"
        } ]
      },
      "subject": {
        "reference": "Patient/20d535da-db77-47c2-bc50-d36ed8a29270"
      },
      "effectivePeriod": {
        "start": "2025-08-27T13:00:00.000+00:00",
        "end": "2025-08-27T13:15:00.000+00:00"
      },
      "valueString": "Documented, progressive thinning of the neuroretinal rim with an associated increase in cupping of the optic disc"
    },
    "request": {
      "method": "PUT",
      "url": "Observation/5c9a433bb8484623838502b6"
    }
  }, {
    "fullUrl": "Observation/5c9a433bb8484623838502b8",
    "resource": {
      "resourceType": "Observation",
      "id": "5c9a433bb8484623838502b8",
      "meta": {
        "profile": [ "http://hl7.org/fhir/us/qicore/StructureDefinition/qicore-observationnotdone" ]
      },
      "extension": [ {
        "url": "http://hl7.org/fhir/us/qicore/StructureDefinition/qicore-notDoneReason",
        "valueCodeableConcept": {
          "coding": [ {
            "system": "http://snomed.info/sct",
            "version": "http://snomed.info/sct/731000124108/version/202303",
            "code": "410536001",
            "display": "Contraindicated (qualifier value)"
          } ]
        }
      } ],
      "status": "cancelled",
      "category": [ {
        "coding": [ {
          "system": "http://snomed.info/sct",
          "version": "http://snomed.info/sct/731000124108/version/202303",
          "code": "428119001",
          "display": "Procedure not indicated (situation)",
          "userSelected": true
        } ]
      } ],
      "code": {
        "coding": [ {
          "system": "http://loinc.org",
          "version": "2.73",
          "code": "71487-3"
        } ]
      },
      "subject": {
        "reference": "Patient/20d535da-db77-47c2-bc50-d36ed8a29270"
      },
      "effectiveDateTime": "2025-08-27T13:00:00.000+00:00",
      "issued": "2025-08-27T13:00:00.000+00:00"
    },
    "request": {
      "method": "PUT",
      "url": "Observation/5c9a433bb8484623838502b8"
    }
  }, {
    "fullUrl": "Encounter/5c9a433bb8484623838502b5",
    "resource": {
      "resourceType": "Encounter",
      "id": "5c9a433bb8484623838502b5",
      "meta": {
        "profile": [ "http://hl7.org/fhir/us/qicore/StructureDefinition/qicore-encounter" ]
      },
      "status": "finished",
      "class": {
        "system": "http://terminology.hl7.org/CodeSystem/v3-ActCode",
        "code": "AMB",
        "display": "ambulatory",
        "userSelected": true
      },
      "type": [ {
        "coding": [ {
          "system": "http://www.ama-assn.org/go/cpt",
          "code": "92002"
        } ]
      } ],
      "subject": {
        "reference": "Patient/20d535da-db77-47c2-bc50-d36ed8a29270"
      },
      "period": {
        "start": "2025-08-27T12:40:00.000+00:00",
        "end": "2025-08-27T13:40:00.000+00:00"
      },
      "length": {
        "value": 0.0,
        "unit": "days"
      }
    },
    "request": {
      "method": "PUT",
      "url": "Encounter/5c9a433bb8484623838502b5"
    }
  }, {
    "fullUrl": "MeasureReport/2601330c-2af5-452d-a7f4-faa6b20013cd",
    "resource": {
      "resourceType": "MeasureReport",
      "id": "2601330c-2af5-452d-a7f4-faa6b20013cd",
      "meta": {
        "profile": [ "http://hl7.org/fhir/us/cqfmeasures/StructureDefinition/test-case-cqfm" ]
      },
      "contained": [ {
        "resourceType": "Parameters",
        "id": "ee6abb63-a93b-4a49-84c3-89fa8e84cc9c-parameters",
        "parameter": [ {
          "name": "subject",
          "valueString": "20d535da-db77-47c2-bc50-d36ed8a29270"
        } ]
      } ],
      "extension": [ {
        "url": "http://hl7.org/fhir/us/cqfmeasures/StructureDefinition/cqfm-inputParameters",
        "valueReference": {
          "reference": "#ee6abb63-a93b-4a49-84c3-89fa8e84cc9c-parameters"
        }
      }, {
        "url": "http://hl7.org/fhir/us/cqfmeasures/StructureDefinition/cqfm-testCaseDescription",
        "valueMarkdown": "Patient fails IPP/Denom due to age being 17 years 11 months and 30 days old  at start of MP"
      } ],
      "modifierExtension": [ {
        "url": "http://hl7.org/fhir/us/cqfmeasures/StructureDefinition/cqfm-isTestCase",
        "valueBoolean": true
      } ],
      "status": "complete",
      "type": "individual",
      "measure": "Measure/POAGOpticNerveEvaluationFHIR",
      "period": {
        "start": "2025-01-01",
        "end": "2025-12-31"
      },
      "group": [ {
        "population": [ {
          "code": {
            "coding": [ {
              "system": "http://terminology.hl7.org/CodeSystem/measure-population",
              "code": "initial-population",
              "display": "Initial Population"
            } ]
          },
          "count": 0
        }, {
          "code": {
            "coding": [ {
              "system": "http://terminology.hl7.org/CodeSystem/measure-population",
              "code": "denominator",
              "display": "Denominator"
            } ]
          },
          "count": 0
        }, {
          "code": {
            "coding": [ {
              "system": "http://terminology.hl7.org/CodeSystem/measure-population",
              "code": "denominator-exception",
              "display": "Denominator Exception"
            } ]
          },
          "count": 0
        }, {
          "code": {
            "coding": [ {
              "system": "http://terminology.hl7.org/CodeSystem/measure-population",
              "code": "numerator",
              "display": "Numerator"
            } ]
          },
          "count": 0
        } ]
      } ],
      "evaluatedResource": [ {
        "reference": "Patient/20d535da-db77-47c2-bc50-d36ed8a29270"
      }, {
        "reference": "Condition/5c9a433bb8484623838502b4"
      }, {
        "reference": "Observation/5c9a433bb8484623838502b6"
      }, {
        "reference": "Observation/5c9a433bb8484623838502b8"
      }, {
        "reference": "Encounter/5c9a433bb8484623838502b5"
      } ]
    },
    "request": {
      "method": "PUT",
      "url": "MeasureReport/2601330c-2af5-452d-a7f4-faa6b20013cd"
    }
  } ]
}
