{
  "resourceType": "Bundle",
  "id": "6109658e98086b538055b9d3",
  "type": "transaction",
  "entry": [ {
    "fullUrl": "Patient/1821adaa-fc62-4a94-9ebc-388ef6ced017",
    "resource": {
      "resourceType": "Patient",
      "id": "1821adaa-fc62-4a94-9ebc-388ef6ced017",
      "meta": {
        "profile": [ "http://hl7.org/fhir/us/qicore/StructureDefinition/qicore-patient" ]
      },
      "extension": [ {
        "url": "http://hl7.org/fhir/us/core/StructureDefinition/us-core-race",
        "extension": [ {
          "url": "ombCategory",
          "valueCoding": {
            "system": "urn:oid:2.16.840.1.113883.6.238",
            "code": "1002-5",
            "display": "American Indian or Alaska Native",
            "userSelected": true
          }
        }, {
          "url": "text",
          "valueString": "American Indian or Alaska Native"
        } ]
      }, {
        "url": "http://hl7.org/fhir/us/core/StructureDefinition/us-core-ethnicity",
        "extension": [ {
          "url": "ombCategory",
          "valueCoding": {
            "system": "urn:oid:2.16.840.1.113883.6.238",
            "code": "2135-2",
            "display": "Hispanic or Latino",
            "userSelected": true
          }
        }, {
          "url": "text",
          "valueString": "Hispanic or Latino"
        } ]
      } ],
      "identifier": [ {
        "type": {
          "coding": [ {
            "system": "http://terminology.hl7.org/CodeSystem/v2-0203",
            "code": "MR"
          } ]
        },
        "system": "https://bonnie-fhir.healthit.gov/",
        "value": "6109658e98086b538055b9d3"
      } ],
      "active": true,
      "name": [ {
        "use": "usual",
        "family": "DENEXCEPPass",
        "given": [ "TwoDiscExamNotDoneForMR" ]
      } ],
      "gender": "male",
      "birthDate": "1927-11-18"
    },
    "request": {
      "method": "PUT",
      "url": "Patient/1821adaa-fc62-4a94-9ebc-388ef6ced017"
    }
  }, {
    "fullUrl": "Condition/5c9a433bb848462383850298",
    "resource": {
      "resourceType": "Condition",
      "id": "5c9a433bb848462383850298",
      "meta": {
        "profile": [ "http://hl7.org/fhir/us/qicore/StructureDefinition/qicore-condition" ]
      },
      "clinicalStatus": {
        "coding": [ {
          "system": "http://terminology.hl7.org/CodeSystem/condition-clinical",
          "code": "active",
          "display": "active",
          "userSelected": true
        } ]
      },
      "category": [ {
        "coding": [ {
          "system": "http://terminology.hl7.org/CodeSystem/condition-category",
          "code": "problem-list-item",
          "display": "problem-list-item",
          "userSelected": true
        } ]
      } ],
      "code": {
        "coding": [ {
          "system": "http://hl7.org/fhir/sid/icd-10-cm",
          "version": "2023",
          "code": "H40.153"
        } ]
      },
      "subject": {
        "reference": "Patient/1821adaa-fc62-4a94-9ebc-388ef6ced017"
      },
      "onsetDateTime": "2011-03-09T08:45:00+00:00"
    },
    "request": {
      "method": "PUT",
      "url": "Condition/5c9a433bb848462383850298"
    }
  }, {
    "fullUrl": "Observation/5c9a433bb84846238385029a",
    "resource": {
      "resourceType": "Observation",
      "id": "5c9a433bb84846238385029a",
      "meta": {
        "profile": [ "http://hl7.org/fhir/us/qicore/StructureDefinition/qicore-observationnotdone" ]
      },
      "extension": [ {
        "url": "http://hl7.org/fhir/us/qicore/StructureDefinition/qicore-notDoneReason",
        "valueCodeableConcept": {
          "coding": [ {
            "system": "http://snomed.info/sct",
            "version": "http://snomed.info/sct/731000124108/version/202303",
            "code": "410536001",
            "display": "Contraindicated (qualifier value)"
          } ]
        }
      } ],
      "status": "cancelled",
      "category": [ {
        "coding": [ {
          "system": "http://snomed.info/sct",
          "version": "http://snomed.info/sct/731000124108/version/202303",
          "code": "428119001",
          "display": "Procedure not indicated (situation)",
          "userSelected": true
        } ]
      } ],
      "code": {
        "coding": [ {
          "system": "http://loinc.org",
          "version": "2.73",
          "code": "71487-3"
        } ]
      },
      "subject": {
        "reference": "Patient/1821adaa-fc62-4a94-9ebc-388ef6ced017"
      },
      "effectiveDateTime": "2025-05-29T09:00:00.000+00:00",
      "issued": "2025-05-29T09:00:00.000+00:00"
    },
    "request": {
      "method": "PUT",
      "url": "Observation/5c9a433bb84846238385029a"
    }
  }, {
    "fullUrl": "Observation/5c9a433bb84846238385029c",
    "resource": {
      "resourceType": "Observation",
      "id": "5c9a433bb84846238385029c",
      "meta": {
        "profile": [ "http://hl7.org/fhir/us/qicore/StructureDefinition/qicore-observationnotdone" ]
      },
      "extension": [ {
        "url": "http://hl7.org/fhir/us/qicore/StructureDefinition/qicore-notDoneReason",
        "valueCodeableConcept": {
          "coding": [ {
            "system": "http://snomed.info/sct",
            "version": "http://snomed.info/sct/731000124108/version/202303",
            "code": "410536001",
            "display": "Contraindicated (qualifier value)"
          } ]
        }
      } ],
      "status": "cancelled",
      "category": [ {
        "coding": [ {
          "system": "http://snomed.info/sct",
          "version": "http://snomed.info/sct/731000124108/version/202303",
          "code": "35688006",
          "display": "Complication of medical care (disorder)",
          "userSelected": true
        } ]
      } ],
      "code": {
        "coding": [ {
          "system": "http://loinc.org",
          "version": "2.73",
          "code": "71484-0"
        } ]
      },
      "subject": {
        "reference": "Patient/1821adaa-fc62-4a94-9ebc-388ef6ced017"
      },
      "encounter": {
        "reference": "Encounter/5c9a433bb848462383850299"
      },
      "effectiveDateTime": "2025-05-29T09:00:00.000+00:00",
      "issued": "2025-05-29T09:00:00.000+00:00"
    },
    "request": {
      "method": "PUT",
      "url": "Observation/5c9a433bb84846238385029c"
    }
  }, {
    "fullUrl": "Encounter/5c9a433bb848462383850299",
    "resource": {
      "resourceType": "Encounter",
      "id": "5c9a433bb848462383850299",
      "meta": {
        "profile": [ "http://hl7.org/fhir/us/qicore/StructureDefinition/qicore-encounter" ]
      },
      "status": "finished",
      "class": {
        "system": "http://terminology.hl7.org/CodeSystem/v3-ActCode",
        "code": "AMB",
        "display": "ambulatory",
        "userSelected": true
      },
      "type": [ {
        "coding": [ {
          "system": "http://snomed.info/sct",
          "version": "http://snomed.info/sct/731000124108/version/202303",
          "code": "18170008"
        } ]
      } ],
      "subject": {
        "reference": "Patient/1821adaa-fc62-4a94-9ebc-388ef6ced017"
      },
      "period": {
        "start": "2025-05-29T08:45:00.000+00:00",
        "end": "2025-05-29T09:45:00.000+00:00"
      },
      "length": {
        "value": 0,
        "unit": "days"
      }
    },
    "request": {
      "method": "PUT",
      "url": "Encounter/5c9a433bb848462383850299"
    }
  }, {
    "fullUrl": "MeasureReport/eeb5c01e-fd2d-49a4-bdf4-8b71799fcdbf",
    "resource": {
      "resourceType": "MeasureReport",
      "id": "eeb5c01e-fd2d-49a4-bdf4-8b71799fcdbf",
      "meta": {
        "profile": [ "http://hl7.org/fhir/us/cqfmeasures/StructureDefinition/test-case-cqfm" ]
      },
      "contained": [ {
        "resourceType": "Parameters",
        "id": "5a718223-9cc5-4ca0-be11-ee6647255ba6-parameters",
        "parameter": [ {
          "name": "subject",
          "valueString": "1821adaa-fc62-4a94-9ebc-388ef6ced017"
        } ]
      } ],
      "extension": [ {
        "url": "http://hl7.org/fhir/us/cqfmeasures/StructureDefinition/cqfm-inputParameters",
        "valueReference": {
          "reference": "#5a718223-9cc5-4ca0-be11-ee6647255ba6-parameters"
        }
      }, {
        "url": "http://hl7.org/fhir/us/cqfmeasures/StructureDefinition/cqfm-testCaseDescription",
        "valueMarkdown": "Patient with glaucoma, nursing home visit, cup to disc ratio and optic disc exam not performed for medical reason. "
      } ],
      "modifierExtension": [ {
        "url": "http://hl7.org/fhir/us/cqfmeasures/StructureDefinition/cqfm-isTestCase",
        "valueBoolean": true
      } ],
      "status": "complete",
      "type": "individual",
      "measure": "Measure/POAGOpticNerveEvaluationFHIR",
      "period": {
        "start": "2025-01-01",
        "end": "2025-12-31"
      },
      "group": [ {
        "population": [ {
          "code": {
            "coding": [ {
              "system": "http://terminology.hl7.org/CodeSystem/measure-population",
              "code": "initial-population",
              "display": "Initial Population"
            } ]
          },
          "count": 1
        }, {
          "code": {
            "coding": [ {
              "system": "http://terminology.hl7.org/CodeSystem/measure-population",
              "code": "denominator",
              "display": "Denominator"
            } ]
          },
          "count": 1
        }, {
          "code": {
            "coding": [ {
              "system": "http://terminology.hl7.org/CodeSystem/measure-population",
              "code": "denominator-exception",
              "display": "Denominator Exception"
            } ]
          },
          "count": 1
        }, {
          "code": {
            "coding": [ {
              "system": "http://terminology.hl7.org/CodeSystem/measure-population",
              "code": "numerator",
              "display": "Numerator"
            } ]
          },
          "count": 0
        } ]
      } ],
      "evaluatedResource": [ {
        "reference": "Patient/1821adaa-fc62-4a94-9ebc-388ef6ced017"
      }, {
        "reference": "Condition/5c9a433bb848462383850298"
      }, {
        "reference": "Observation/5c9a433bb84846238385029a"
      }, {
        "reference": "Observation/5c9a433bb84846238385029c"
      }, {
        "reference": "Encounter/5c9a433bb848462383850299"
      } ]
    },
    "request": {
      "method": "PUT",
      "url": "MeasureReport/eeb5c01e-fd2d-49a4-bdf4-8b71799fcdbf"
    }
  } ]
}
