{"resourceType":"Bundle","id":"tests-e180c0c4-8263-401a-923d-b1426bf07636-bundle","type":"transaction","entry":[{"fullUrl":"Patient/e180c0c4-8263-401a-923d-b1426bf07636","resource":{"resourceType":"Patient","id":"e180c0c4-8263-401a-923d-b1426bf07636","meta":{"profile":["http://hl7.org/fhir/us/qicore/StructureDefinition/qicore-patient"]},"extension":[{"url":"http://hl7.org/fhir/us/core/StructureDefinition/us-core-race","extension":[{"url":"ombCategory","valueCoding":{"system":"urn:oid:2.16.840.1.113883.6.238","code":"2054-5","display":"Black or African American"}},{"url":"text","valueString":"Black or African American"}]},{"url":"http://hl7.org/fhir/us/core/StructureDefinition/us-core-ethnicity","extension":[{"url":"ombCategory","valueCoding":{"system":"urn:oid:2.16.840.1.113883.6.238","code":"2186-5","display":"Not Hispanic or Latino","userSelected":true}},{"url":"text","valueString":"Not Hispanic or Latino"}]}],"identifier":[{"type":{"coding":[{"system":"http://terminology.hl7.org/CodeSystem/v2-0203","code":"MR"}]},"system":"https://GoodHealthCare.com","value":"6109658e98086b538055b9e4"}],"active":true,"name":[{"use":"usual","family":"IPPFail","given":["POAGDxInactive"]}],"gender":"female","birthDate":"1990-12-01"},"request":{"method":"PUT","url":"Patient/e180c0c4-8263-401a-923d-b1426bf07636"}},{"fullUrl":"Encounter/604287465c49a000003f51d4","resource":{"resourceType":"Encounter","id":"604287465c49a000003f51d4","meta":{"profile":["http://hl7.org/fhir/us/qicore/StructureDefinition/qicore-encounter"]},"status":"finished","class":{"system":"http://terminology.hl7.org/CodeSystem/v3-ActCode","code":"AMB","display":"ambulatory","userSelected":true},"type":[{"coding":[{"system":"http://snomed.info/sct","code":"37894004"},{"system":"http://www.ama-assn.org/go/cpt","code":"99213","userSelected":true}]}],"subject":{"reference":"Patient/e180c0c4-8263-401a-923d-b1426bf07636"},"period":{"start":"2025-03-05T08:00:00.000+00:00","end":"2025-03-05T08:30:00.000+00:00"}},"request":{"method":"PUT","url":"Encounter/604287465c49a000003f51d4"}},{"fullUrl":"Condition/C-6000320042","resource":{"resourceType":"Condition","id":"C-6000320042","meta":{"profile":["http://hl7.org/fhir/us/qicore/StructureDefinition/qicore-condition"]},"clinicalStatus":{"coding":[{"system":"http://terminology.hl7.org/CodeSystem/condition-clinical","code":"inactive","display":"inActive"}]},"category":[{"coding":[{"system":"http://terminology.hl7.org/CodeSystem/condition-category","code":"problem-list-item","display":"problem-list-item","userSelected":true}]}],"code":{"coding":[{"system":"http://hl7.org/fhir/sid/icd-10-cm","code":"H40.10X0"}]},"subject":{"reference":"Patient/e180c0c4-8263-401a-923d-b1426bf07636"},"onsetDateTime":"2023-09-14T08:00:00.000+00:00"},"request":{"method":"PUT","url":"Condition/C-6000320042"}},{"fullUrl":"MeasureReport/ca80ae77-a1df-44cd-809b-6908bb2fe080","resource":{"resourceType":"MeasureReport","id":"ca80ae77-a1df-44cd-809b-6908bb2fe080","meta":{"profile":["http://hl7.org/fhir/us/cqfmeasures/StructureDefinition/test-case-cqfm"]},"contained":[{"resourceType":"Parameters","id":"67cfd3da-539d-4feb-88ac-bfbb2ca67943-parameters","parameter":[{"name":"subject","valueString":"e180c0c4-8263-401a-923d-b1426bf07636"}]}],"extension":[{"url":"http://hl7.org/fhir/us/cqfmeasures/StructureDefinition/cqfm-inputParameters","valueReference":{"reference":"#67cfd3da-539d-4feb-88ac-bfbb2ca67943-parameters"}},{"url":"http://hl7.org/fhir/us/cqfmeasures/StructureDefinition/cqfm-testCaseDescription","valueMarkdown":"Patient with Qualifying Encounter and POAG Diagnosis that has Clinical Status of inactive and will fail Initial Population."}],"modifierExtension":[{"url":"http://hl7.org/fhir/us/cqfmeasures/StructureDefinition/cqfm-isTestCase","valueBoolean":true}],"status":"complete","type":"individual","measure":"Measure/POAGOpticNerveEvaluationFHIR","period":{"start":"2025-01-01","end":"2025-12-31"},"group":[{"population":[{"code":{"coding":[{"system":"http://terminology.hl7.org/CodeSystem/measure-population","code":"initial-population","display":"Initial Population"}]},"count":0},{"code":{"coding":[{"system":"http://terminology.hl7.org/CodeSystem/measure-population","code":"denominator","display":"Denominator"}]},"count":0},{"code":{"coding":[{"system":"http://terminology.hl7.org/CodeSystem/measure-population","code":"denominator-exception","display":"Denominator Exception"}]},"count":0},{"code":{"coding":[{"system":"http://terminology.hl7.org/CodeSystem/measure-population","code":"numerator","display":"Numerator"}]},"count":0}]}],"evaluatedResource":[{"reference":"Patient/e180c0c4-8263-401a-923d-b1426bf07636"},{"reference":"Encounter/604287465c49a000003f51d4"},{"reference":"Condition/C-6000320042"}]},"request":{"method":"PUT","url":"MeasureReport/ca80ae77-a1df-44cd-809b-6908bb2fe080"}}]}