{"resourceType":"Bundle","id":"tests-5275f17e-d213-4c1f-8d5c-9022276fdf8a-bundle","type":"transaction","entry":[{"fullUrl":"Patient/5275f17e-d213-4c1f-8d5c-9022276fdf8a","resource":{"resourceType":"Patient","id":"5275f17e-d213-4c1f-8d5c-9022276fdf8a","meta":{"profile":["http://hl7.org/fhir/us/qicore/StructureDefinition/qicore-patient"]},"extension":[{"url":"http://hl7.org/fhir/us/core/StructureDefinition/us-core-race","extension":[{"url":"ombCategory","valueCoding":{"system":"urn:oid:2.16.840.1.113883.6.238","code":"2106-3","display":"White","userSelected":true}},{"url":"text","valueString":"White"}]},{"url":"http://hl7.org/fhir/us/core/StructureDefinition/us-core-ethnicity","extension":[{"url":"ombCategory","valueCoding":{"system":"urn:oid:2.16.840.1.113883.6.238","code":"2186-5","display":"Not Hispanic or Latino","userSelected":true}},{"url":"text","valueString":"Not Hispanic or Latino"}]}],"identifier":[{"type":{"coding":[{"system":"http://terminology.hl7.org/CodeSystem/v2-0203","code":"MR"}]},"system":"https://bonnie-fhir.healthit.gov/","value":"6109658e98086b538055b9e4"}],"active":true,"name":[{"use":"usual","family":"IPPFail","given":["NonQualifyingInpatientEnc"]}],"gender":"male","birthDate":"2005-12-31"},"request":{"method":"PUT","url":"Patient/5275f17e-d213-4c1f-8d5c-9022276fdf8a"}},{"fullUrl":"Encounter/604287465c49a000003f51d4","resource":{"resourceType":"Encounter","id":"604287465c49a000003f51d4","meta":{"profile":["http://hl7.org/fhir/us/qicore/StructureDefinition/qicore-encounter"]},"status":"finished","class":{"system":"http://terminology.hl7.org/CodeSystem/v3-ActCode","code":"IMP","display":"inpatient encounter","userSelected":true},"type":[{"coding":[{"system":"http://www.ama-assn.org/go/cpt","version":"2023","code":"99221","userSelected":true}]}],"subject":{"reference":"Patient/5275f17e-d213-4c1f-8d5c-9022276fdf8a"},"period":{"start":"2025-03-05T08:00:00.000+00:00","end":"2025-03-05T08:30:00.000+00:00"}},"request":{"method":"PUT","url":"Encounter/604287465c49a000003f51d4"}},{"fullUrl":"Condition/C-6000320042","resource":{"resourceType":"Condition","id":"C-6000320042","meta":{"profile":["http://hl7.org/fhir/us/qicore/StructureDefinition/qicore-condition"]},"clinicalStatus":{"coding":[{"system":"http://terminology.hl7.org/CodeSystem/condition-clinical","code":"active","display":"active","userSelected":true}]},"category":[{"coding":[{"system":"http://terminology.hl7.org/CodeSystem/condition-category","code":"problem-list-item","display":"problem-list-item","userSelected":true}]}],"code":{"coding":[{"system":"http://hl7.org/fhir/sid/icd-10-cm","code":"H40.10X0"}]},"subject":{"reference":"Patient/5275f17e-d213-4c1f-8d5c-9022276fdf8a"},"onsetDateTime":"2023-09-14T08:00:00.000+00:00"},"request":{"method":"PUT","url":"Condition/C-6000320042"}},{"fullUrl":"MeasureReport/48e882cc-829a-4cd9-bc8a-e8b688354527","resource":{"resourceType":"MeasureReport","id":"48e882cc-829a-4cd9-bc8a-e8b688354527","meta":{"profile":["http://hl7.org/fhir/us/cqfmeasures/StructureDefinition/test-case-cqfm"]},"contained":[{"resourceType":"Parameters","id":"c4e91783-6d20-43d5-a7c0-843bd45caf50-parameters","parameter":[{"name":"subject","valueString":"5275f17e-d213-4c1f-8d5c-9022276fdf8a"}]}],"extension":[{"url":"http://hl7.org/fhir/us/cqfmeasures/StructureDefinition/cqfm-inputParameters","valueReference":{"reference":"#c4e91783-6d20-43d5-a7c0-843bd45caf50-parameters"}},{"url":"http://hl7.org/fhir/us/cqfmeasures/StructureDefinition/cqfm-testCaseDescription","valueMarkdown":"Fails Initial Population due to an encounter which occurs during the measurement period but is an Inpatient Encounter which does not meet measure specification"}],"modifierExtension":[{"url":"http://hl7.org/fhir/us/cqfmeasures/StructureDefinition/cqfm-isTestCase","valueBoolean":true}],"status":"complete","type":"individual","measure":"Measure/POAGOpticNerveEvaluationFHIR","period":{"start":"2025-01-01","end":"2025-12-31"},"group":[{"population":[{"code":{"coding":[{"system":"http://terminology.hl7.org/CodeSystem/measure-population","code":"initial-population","display":"Initial Population"}]},"count":0},{"code":{"coding":[{"system":"http://terminology.hl7.org/CodeSystem/measure-population","code":"denominator","display":"Denominator"}]},"count":0},{"code":{"coding":[{"system":"http://terminology.hl7.org/CodeSystem/measure-population","code":"denominator-exception","display":"Denominator Exception"}]},"count":0},{"code":{"coding":[{"system":"http://terminology.hl7.org/CodeSystem/measure-population","code":"numerator","display":"Numerator"}]},"count":0}]}],"evaluatedResource":[{"reference":"Patient/5275f17e-d213-4c1f-8d5c-9022276fdf8a"},{"reference":"Encounter/604287465c49a000003f51d4"},{"reference":"Condition/C-6000320042"}]},"request":{"method":"PUT","url":"MeasureReport/48e882cc-829a-4cd9-bc8a-e8b688354527"}}]}