{"resourceType":"Bundle","id":"tests-34de40ad-a4f3-471b-be6d-825e2b4df485-bundle","type":"transaction","entry":[{"fullUrl":"https://madie.cms.gov/Patient/34de40ad-a4f3-471b-be6d-825e2b4df485","resource":{"resourceType":"Patient","id":"34de40ad-a4f3-471b-be6d-825e2b4df485","meta":{"profile":["http://hl7.org/fhir/us/qicore/StructureDefinition/qicore-patient"]},"text":{"status":"generated","div":"<div xmlns=\"http://www.w3.org/1999/xhtml\"><div class=\"hapiHeaderText\">2HCT1stMeets2ndDoesNot <b>RISKPass </b></div><table class=\"hapiPropertyTable\"><tbody><tr><td>Date of birth</td><td><span>01 February 2004</span></td></tr></tbody></table></div>"},"extension":[{"url":"http://hl7.org/fhir/us/core/StructureDefinition/us-core-race","extension":[{"url":"ombCategory","valueCoding":{"system":"urn:oid:2.16.840.1.113883.6.238","code":"1002-5","display":"American Indian or Alaska Native","userSelected":true}},{"url":"text","valueString":"American Indian or Alaska Native"}]},{"url":"http://hl7.org/fhir/us/core/StructureDefinition/us-core-ethnicity","extension":[{"url":"ombCategory","valueCoding":{"system":"urn:oid:2.16.840.1.113883.6.238","code":"2135-2","display":"Hispanic or Latino","userSelected":true}},{"url":"text","valueString":"Hispanic or Latino"}]}],"identifier":[{"type":{"coding":[{"system":"http://terminology.hl7.org/CodeSystem/v2-0203","code":"MR"}]},"system":"https://bonnie-fhir.healthit.gov/","value":"6359776b6aee9629c8298235"}],"active":true,"name":[{"use":"usual","family":"RiskPass","given":["2HCT1stMeets2ndDoesNot"]}],"gender":"female","birthDate":"2004-02-01"},"request":{"method":"PUT","url":"Patient/34de40ad-a4f3-471b-be6d-825e2b4df485"}},{"fullUrl":"https://madie.cms.gov/Observation/5f29baa26f0b7100008d8af1","resource":{"resourceType":"Observation","id":"5f29baa26f0b7100008d8af1","meta":{"profile":["http://hl7.org/fhir/us/qicore/StructureDefinition/qicore-observation"]},"status":"final","category":[{"coding":[{"system":"http://terminology.hl7.org/CodeSystem/observation-category","code":"exam","display":"exam","userSelected":true}]}],"code":{"coding":[{"system":"http://loinc.org","code":"93857-1"}]},"subject":{"reference":"Patient/34de40ad-a4f3-471b-be6d-825e2b4df485"},"effectiveDateTime":"2025-02-01T08:15:00.000+00:00","valueDateTime":"2025-02-01T08:15:00+00:00"},"request":{"method":"PUT","url":"Observation/5f29baa26f0b7100008d8af1"}},{"fullUrl":"https://madie.cms.gov/Observation/5f32bf4551476200007ab6d3","resource":{"resourceType":"Observation","id":"5f32bf4551476200007ab6d3","meta":{"profile":["http://hl7.org/fhir/us/qicore/StructureDefinition/qicore-observation"]},"status":"final","category":[{"coding":[{"system":"http://terminology.hl7.org/CodeSystem/observation-category","code":"exam","display":"exam","userSelected":true}]}],"code":{"coding":[{"system":"http://loinc.org","code":"11884-4"}]},"subject":{"reference":"Patient/34de40ad-a4f3-471b-be6d-825e2b4df485"},"effectiveDateTime":"2025-02-01T08:00:00.000+00:00","valueQuantity":{"value":21,"system":"http://unitsofmeasure.org","code":"wk"}},"request":{"method":"PUT","url":"Observation/5f32bf4551476200007ab6d3"}},{"fullUrl":"https://madie.cms.gov/Encounter/5f21e66daca3e40000cb86cf","resource":{"resourceType":"Encounter","id":"5f21e66daca3e40000cb86cf","meta":{"profile":["http://hl7.org/fhir/us/qicore/StructureDefinition/qicore-encounter"]},"status":"finished","class":{"system":"http://terminology.hl7.org/CodeSystem/v3-ActCode","code":"IMP","display":"inpatient encounter"},"type":[{"coding":[{"system":"http://snomed.info/sct","code":"183452005"}]}],"subject":{"reference":"Patient/34de40ad-a4f3-471b-be6d-825e2b4df485"},"period":{"start":"2025-02-01T08:00:00.000Z","end":"2025-02-05T08:15:00.000Z"}},"request":{"method":"PUT","url":"Encounter/5f21e66daca3e40000cb86cf"}},{"fullUrl":"https://madie.cms.gov/Encounter/6001e814bd87590000ceb183","resource":{"resourceType":"Encounter","id":"6001e814bd87590000ceb183","meta":{"profile":["http://hl7.org/fhir/us/qicore/StructureDefinition/qicore-encounter"]},"status":"finished","class":{"system":"http://terminology.hl7.org/CodeSystem/v3-ActCode","code":"EMER","display":"emergency"},"type":[{"coding":[{"system":"http://snomed.info/sct","code":"4525004"}]}],"subject":{"reference":"Patient/34de40ad-a4f3-471b-be6d-825e2b4df485"},"period":{"start":"2025-02-01T07:00:00.000Z","end":"2025-02-01T07:59:00.000Z"}},"request":{"method":"PUT","url":"Encounter/6001e814bd87590000ceb183"}},{"fullUrl":"https://madie.cms.gov/Procedure/5f21e716aca3e40000cb87ee","resource":{"resourceType":"Procedure","id":"5f21e716aca3e40000cb87ee","meta":{"profile":["http://hl7.org/fhir/us/qicore/StructureDefinition/qicore-procedure"]},"extension":[{"url":"http://hl7.org/fhir/us/qicore/StructureDefinition/qicore-recorded","valueDateTime":"2025-02-04T09:35:00-04:00"}],"status":"completed","code":{"coding":[{"system":"http://snomed.info/sct","code":"10745001"}]},"subject":{"reference":"Patient/34de40ad-a4f3-471b-be6d-825e2b4df485"},"performedPeriod":{"start":"2025-02-01T08:00:00.000Z","end":"2025-02-05T08:15:00.000Z"}},"request":{"method":"PUT","url":"Procedure/5f21e716aca3e40000cb87ee"}},{"fullUrl":"https://madie.cms.gov/Observation/hematocrit-count-lab-test-8236","resource":{"resourceType":"Observation","id":"hematocrit-count-lab-test-8236","meta":{"profile":["http://hl7.org/fhir/us/core/StructureDefinition/us-core-observation-lab"]},"status":"final","category":[{"coding":[{"system":"http://terminology.hl7.org/CodeSystem/observation-category","code":"laboratory","display":"laboratory","userSelected":true}]}],"code":{"coding":[{"system":"http://loinc.org","version":"2.73","code":"20570-8","display":"Hematocrit [Volume Fraction] in Blood","userSelected":true}]},"subject":{"reference":"Patient/34de40ad-a4f3-471b-be6d-825e2b4df485"},"effectiveDateTime":"2025-02-01T08:01:00.000+00:00","issued":"2025-02-01T08:01:00.000+00:00","valueQuantity":{"unit":"%"}},"request":{"method":"PUT","url":"Observation/hematocrit-count-lab-test-8236"}},{"fullUrl":"https://madie.cms.gov/Observation/hematocrit-count-lab-test-8236-b","resource":{"resourceType":"Observation","id":"hematocrit-count-lab-test-8236-b","meta":{"profile":["http://hl7.org/fhir/us/core/StructureDefinition/us-core-observation-lab"]},"status":"final","category":[{"coding":[{"system":"http://terminology.hl7.org/CodeSystem/observation-category","code":"laboratory","display":"laboratory","userSelected":true}]}],"code":{"coding":[{"system":"http://loinc.org","version":"2.73","code":"20570-8","display":"Hematocrit [Volume Fraction] in Blood","userSelected":true}]},"subject":{"reference":"Patient/34de40ad-a4f3-471b-be6d-825e2b4df485"},"effectiveDateTime":"2025-02-01T08:02:00.000+00:00","issued":"2025-02-01T08:02:00.000+00:00","valueQuantity":{"value":20,"unit":"%"}},"request":{"method":"PUT","url":"Observation/hematocrit-count-lab-test-8236-b"}},{"fullUrl":"https://madie.cms.gov/MeasureReport/ce769a9e-018b-400c-8207-ce83efdf02f2","resource":{"resourceType":"MeasureReport","id":"ce769a9e-018b-400c-8207-ce83efdf02f2","meta":{"profile":["http://hl7.org/fhir/us/cqfmeasures/StructureDefinition/test-case-cqfm"]},"contained":[{"resourceType":"Parameters","id":"99a0523c-7472-427b-a531-aa5907f21c96-parameters","parameter":[{"name":"subject","valueString":"34de40ad-a4f3-471b-be6d-825e2b4df485"}]}],"extension":[{"url":"http://hl7.org/fhir/us/cqfmeasures/StructureDefinition/cqfm-inputParameters","valueReference":{"reference":"#99a0523c-7472-427b-a531-aa5907f21c96-parameters"}},{"url":"http://hl7.org/fhir/us/cqfmeasures/StructureDefinition/cqfm-testCaseDescription","valueMarkdown":"2 hematocrits.  1st value is null, 2nd is good."}],"modifierExtension":[{"url":"http://hl7.org/fhir/us/cqfmeasures/StructureDefinition/cqfm-isTestCase","valueBoolean":true}],"status":"complete","type":"individual","measure":"https://madie.cms.gov/Measure/SevereObstetricComplicationsFHIR","period":{"start":"2025-01-01","end":"2025-12-31"},"group":[{"population":[{"code":{"coding":[{"system":"http://terminology.hl7.org/CodeSystem/measure-population","code":"initial-population","display":"Initial Population"}]},"count":1},{"code":{"coding":[{"system":"http://terminology.hl7.org/CodeSystem/measure-population","code":"denominator","display":"Denominator"}]},"count":1},{"code":{"coding":[{"system":"http://terminology.hl7.org/CodeSystem/measure-population","code":"denominator-exclusion","display":"Denominator Exclusion"}]},"count":0},{"code":{"coding":[{"system":"http://terminology.hl7.org/CodeSystem/measure-population","code":"numerator","display":"Numerator"}]},"count":0}]}],"evaluatedResource":[{"reference":"Patient/34de40ad-a4f3-471b-be6d-825e2b4df485"},{"reference":"Observation/5f29baa26f0b7100008d8af1"},{"reference":"Observation/5f32bf4551476200007ab6d3"},{"reference":"Encounter/5f21e66daca3e40000cb86cf"},{"reference":"Encounter/6001e814bd87590000ceb183"},{"reference":"Procedure/5f21e716aca3e40000cb87ee"},{"reference":"Observation/hematocrit-count-lab-test-8236"},{"reference":"Observation/hematocrit-count-lab-test-8236-b"}]},"request":{"method":"PUT","url":"MeasureReport/ce769a9e-018b-400c-8207-ce83efdf02f2"}}]}