{"resourceType":"Bundle","id":"tests-6785c9c5-d58e-4e86-9f68-10c83597f8fb-bundle","type":"transaction","entry":[{"fullUrl":"https://madie.cms.gov/Patient/6785c9c5-d58e-4e86-9f68-10c83597f8fb","resource":{"resourceType":"Patient","id":"6785c9c5-d58e-4e86-9f68-10c83597f8fb","meta":{"profile":["http://hl7.org/fhir/us/qicore/StructureDefinition/qicore-patient"]},"extension":[{"url":"http://hl7.org/fhir/us/core/StructureDefinition/us-core-race","extension":[{"url":"ombCategory","valueCoding":{"system":"urn:oid:2.16.840.1.113883.6.238","code":"1002-5","display":"American Indian or Alaska Native","userSelected":true}},{"url":"text","valueString":"American Indian or Alaska Native"}]},{"url":"http://hl7.org/fhir/us/core/StructureDefinition/us-core-ethnicity","extension":[{"url":"ombCategory","valueCoding":{"system":"urn:oid:2.16.840.1.113883.6.238","code":"2135-2","display":"Hispanic or Latino","userSelected":true}},{"url":"text","valueString":"Hispanic or Latino"}]}],"identifier":[{"type":{"coding":[{"system":"http://terminology.hl7.org/CodeSystem/v2-0203","code":"MR"}]},"system":"https://bonnie-fhir.healthit.gov/","value":"635300f1224f3b0539671247"}],"name":[{"family":"DENOMPass","given":["EDD23Hrs59MinB4TimeOfDel  (1)"]}],"gender":"female","birthDate":"2004-02-01"},"request":{"method":"PUT","url":"Patient/6785c9c5-d58e-4e86-9f68-10c83597f8fb"}},{"fullUrl":"https://madie.cms.gov/Encounter/encounter-inpatient-1248","resource":{"resourceType":"Encounter","id":"f28dd0d7-c780-4bce-9c15-89548a4745dc","meta":{"profile":["http://hl7.org/fhir/us/qicore/StructureDefinition/qicore-encounter"]},"status":"finished","class":{"system":"http://terminology.hl7.org/CodeSystem/v3-ActCode","code":"IMP","display":"inpatient encounter"},"type":[{"coding":[{"system":"http://snomed.info/sct","version":"2022-09","code":"183452005","display":"Emergency hospital admission (procedure)","userSelected":true}]}],"subject":{"reference":"Patient/6785c9c5-d58e-4e86-9f68-10c83597f8fb"},"period":{"start":"2025-02-01T08:00:00.000+00:00","end":"2025-02-05T08:15:00.000+00:00"}},"request":{"method":"PUT","url":"Encounter/f28dd0d7-c780-4bce-9c15-89548a4745dc"}},{"fullUrl":"https://madie.cms.gov/Procedure/delivery-procedures-1249","resource":{"resourceType":"Procedure","id":"ce327b81-6364-40a9-8735-5e939ae22cb5","meta":{"profile":["http://hl7.org/fhir/us/qicore/StructureDefinition/qicore-procedure"]},"extension":[{"url":"http://hl7.org/fhir/us/qicore/StructureDefinition/qicore-recorded","valueDateTime":"2013-04-05T09:35:00-04:00"}],"status":"completed","code":{"coding":[{"system":"http://snomed.info/sct","version":"2022-09","code":"10745001","display":"Delivery of transverse presentation (procedure)","userSelected":true}]},"subject":{"reference":"Patient/6785c9c5-d58e-4e86-9f68-10c83597f8fb"},"performedPeriod":{"start":"2025-02-01T08:00:00.000+00:00","end":"2025-02-05T08:15:00.000+00:00"}},"request":{"method":"PUT","url":"Procedure/ce327b81-6364-40a9-8735-5e939ae22cb5"}},{"fullUrl":"https://madie.cms.gov/Observation/date-and-time-of-obstetric-delivery-124a","resource":{"resourceType":"Observation","id":"68d4d6b2-e7b7-48dc-a227-069d9480d9b8","meta":{"profile":["http://hl7.org/fhir/us/qicore/StructureDefinition/qicore-observation"]},"status":"final","category":[{"coding":[{"system":"http://terminology.hl7.org/CodeSystem/observation-category","code":"exam","display":"exam","userSelected":true}]}],"code":{"coding":[{"system":"http://loinc.org","code":"93857-1","display":"Date and time of obstetric delivery","userSelected":true}]},"subject":{"reference":"Patient/6785c9c5-d58e-4e86-9f68-10c83597f8fb"},"effectiveDateTime":"2025-02-01T08:00:00.000+00:00","valueDateTime":"2025-02-01T08:00:00.000+00:00"},"request":{"method":"PUT","url":"Observation/68d4d6b2-e7b7-48dc-a227-069d9480d9b8"}},{"fullUrl":"https://madie.cms.gov/Observation/delivery-date-estimated-124b","resource":{"resourceType":"Observation","id":"29780525-3f0d-408f-bf4a-b4833a23489e","meta":{"profile":["http://hl7.org/fhir/us/qicore/StructureDefinition/qicore-observation"]},"status":"final","category":[{"coding":[{"system":"http://terminology.hl7.org/CodeSystem/observation-category","code":"exam","display":"exam","userSelected":true}]}],"code":{"coding":[{"system":"http://loinc.org","code":"11778-8","display":"Delivery date Estimated","userSelected":true}]},"subject":{"reference":"Patient/6785c9c5-d58e-4e86-9f68-10c83597f8fb"},"effectiveDateTime":"2025-01-31T08:00:00.000+00:00","valueDateTime":"2025-01-31T08:00:00.000+00:00"},"request":{"method":"PUT","url":"Observation/29780525-3f0d-408f-bf4a-b4833a23489e"}},{"fullUrl":"https://madie.cms.gov/Coverage/1","resource":{"resourceType":"Coverage","id":"8e46c890-868e-4210-9240-86996bd7caf7","meta":{"profile":["http://hl7.org/fhir/us/qicore/StructureDefinition/qicore-coverage"]},"status":"active","beneficiary":{"reference":"Patient/6785c9c5-d58e-4e86-9f68-10c83597f8fb"},"payor":[{"reference":"Organization/880a275e-1cf2-4fb9-869b-f1d2173fdc2b"}]},"request":{"method":"PUT","url":"Coverage/8e46c890-868e-4210-9240-86996bd7caf7"}},{"fullUrl":"https://madie.cms.gov/Organization/123456","resource":{"resourceType":"Organization","id":"880a275e-1cf2-4fb9-869b-f1d2173fdc2b","meta":{"profile":["http://hl7.org/fhir/us/qicore/StructureDefinition/qicore-organization"]},"identifier":[{"use":"temp","system":"urn:oid:2.16.840.1.113883.4.4","value":"21-3259825"}],"active":true,"type":[{"coding":[{"system":"http://terminology.hl7.org/CodeSystem/organization-type","code":"pay","display":"Payer"}]}],"name":"Blue Cross Blue Shield of Texas","telecom":[{"system":"phone","value":"(+1) 972-766-6900"}],"address":[{"use":"billing","type":"postal","line":["P.O. Box 660044"],"city":"Dallas","state":"TX","postalCode":"75266-0044","country":"USA"}]},"request":{"method":"PUT","url":"Organization/880a275e-1cf2-4fb9-869b-f1d2173fdc2b"}},{"fullUrl":"https://madie.cms.gov/Practitioner/practitioner-123456","resource":{"resourceType":"Practitioner","id":"26d88f5d-e867-4a8c-b165-19656560b377","identifier":[{"system":"http://hl7.org/fhir/sid/us-npi","value":"123456"}],"name":[{"family":"Evil","prefix":["Dr"]}]},"request":{"method":"PUT","url":"Practitioner/26d88f5d-e867-4a8c-b165-19656560b377"}},{"fullUrl":"https://madie.cms.gov/MeasureReport/9d66b782-aee9-44e4-a643-22c11c1b4880","resource":{"resourceType":"MeasureReport","id":"9d66b782-aee9-44e4-a643-22c11c1b4880","meta":{"profile":["http://hl7.org/fhir/us/cqfmeasures/StructureDefinition/test-case-cqfm"]},"contained":[{"resourceType":"Parameters","id":"bc436ab0-0da6-4e43-ab70-6b951fceac77-parameters","parameter":[{"name":"subject","valueString":"6785c9c5-d58e-4e86-9f68-10c83597f8fb"}]}],"extension":[{"url":"http://hl7.org/fhir/us/cqfmeasures/StructureDefinition/cqfm-inputParameters","valueReference":{"reference":"#bc436ab0-0da6-4e43-ab70-6b951fceac77-parameters"}},{"url":"http://hl7.org/fhir/us/cqfmeasures/StructureDefinition/cqfm-testCaseDescription","valueMarkdown":"Last assessment Performed, Estimated Delivery Date, Relevant time, 23 hours 59 minutes before Delivery Result Date/Time.  EDD has date/time\n"}],"modifierExtension":[{"url":"http://hl7.org/fhir/us/cqfmeasures/StructureDefinition/cqfm-isTestCase","valueBoolean":true}],"status":"complete","type":"individual","measure":"https://madie.cms.gov/Measure/SevereObstetricComplicationsFHIR","period":{"start":"2025-01-01","end":"2025-12-31"},"group":[{"population":[{"code":{"coding":[{"system":"http://terminology.hl7.org/CodeSystem/measure-population","code":"initial-population","display":"Initial Population"}]},"count":1},{"code":{"coding":[{"system":"http://terminology.hl7.org/CodeSystem/measure-population","code":"denominator","display":"Denominator"}]},"count":1},{"code":{"coding":[{"system":"http://terminology.hl7.org/CodeSystem/measure-population","code":"denominator-exclusion","display":"Denominator Exclusion"}]},"count":0},{"code":{"coding":[{"system":"http://terminology.hl7.org/CodeSystem/measure-population","code":"numerator","display":"Numerator"}]},"count":0},{"code":{"coding":[{"system":"http://terminology.hl7.org/CodeSystem/measure-population","code":"numerator-exclusion","display":"Numerator Exclusion"}]},"count":0}]}]},"request":{"method":"PUT","url":"MeasureReport/9d66b782-aee9-44e4-a643-22c11c1b4880"}}]}