{"resourceType":"Bundle","id":"tests-d73a14c5-a372-43bc-ad7c-d888e5b4bab7-bundle","type":"transaction","entry":[{"fullUrl":"https://madie.cms.gov/Patient/d73a14c5-a372-43bc-ad7c-d888e5b4bab7","resource":{"resourceType":"Patient","id":"d73a14c5-a372-43bc-ad7c-d888e5b4bab7","meta":{"profile":["http://hl7.org/fhir/us/qicore/StructureDefinition/qicore-patient"]},"text":{"status":"generated","div":"<div xmlns=\"http://www.w3.org/1999/xhtml\"><div class=\"hapiHeaderText\">CardConvergTrachORVentProc <b>NUMPass </b></div><table class=\"hapiPropertyTable\"><tbody><tr><td>Date of birth</td><td><span>01 February 2004</span></td></tr></tbody></table></div>"},"extension":[{"url":"http://hl7.org/fhir/us/core/StructureDefinition/us-core-race","extension":[{"url":"ombCategory","valueCoding":{"system":"urn:oid:2.16.840.1.113883.6.238","code":"1002-5","display":"American Indian or Alaska Native","userSelected":true}},{"url":"text","valueString":"American Indian or Alaska Native"}]},{"url":"http://hl7.org/fhir/us/core/StructureDefinition/us-core-ethnicity","extension":[{"url":"ombCategory","valueCoding":{"system":"urn:oid:2.16.840.1.113883.6.238","code":"2135-2","display":"Hispanic or Latino","userSelected":true}},{"url":"text","valueString":"Hispanic or Latino"}]}],"identifier":[{"type":{"coding":[{"system":"http://terminology.hl7.org/CodeSystem/v2-0203","code":"MR"}]},"system":"https://bonnie-fhir.healthit.gov/","value":"633b3f9f0968f80122503cdb"}],"active":true,"name":[{"use":"usual","family":"NUMPass","given":["CardConvergTrachORVentProc"]}],"gender":"female","birthDate":"2004-02-01"},"request":{"method":"PUT","url":"Patient/d73a14c5-a372-43bc-ad7c-d888e5b4bab7"}},{"fullUrl":"https://madie.cms.gov/Observation/5f29baa26f0b7100008d8af1","resource":{"resourceType":"Observation","id":"462ab868-477f-4b61-b10c-467d6db29716","meta":{"profile":["http://hl7.org/fhir/us/qicore/StructureDefinition/qicore-observation"]},"status":"final","category":[{"coding":[{"system":"http://terminology.hl7.org/CodeSystem/observation-category","code":"exam","display":"exam","userSelected":true}]}],"code":{"coding":[{"system":"http://loinc.org","code":"93857-1"}]},"subject":{"reference":"Patient/d73a14c5-a372-43bc-ad7c-d888e5b4bab7"},"effectiveDateTime":"2025-02-01T08:00:00.000+00:00","valueDateTime":"2025-02-01T08:00:00+00:00"},"request":{"method":"PUT","url":"Observation/462ab868-477f-4b61-b10c-467d6db29716"}},{"fullUrl":"https://madie.cms.gov/Observation/5f2b23e36f0b7100008d9b59","resource":{"resourceType":"Observation","id":"19008102-69a9-444a-8f80-df16ac2e2c60","meta":{"profile":["http://hl7.org/fhir/us/qicore/StructureDefinition/qicore-observation"]},"status":"final","category":[{"coding":[{"system":"http://terminology.hl7.org/CodeSystem/observation-category","code":"exam","display":"exam","userSelected":true}]}],"code":{"coding":[{"system":"http://loinc.org","code":"11884-4"}]},"subject":{"reference":"Patient/d73a14c5-a372-43bc-ad7c-d888e5b4bab7"},"effectiveDateTime":"2025-02-01T08:00:00.000+00:00","valueQuantity":{"value":20,"system":"http://unitsofmeasure.org","code":"wk"}},"request":{"method":"PUT","url":"Observation/19008102-69a9-444a-8f80-df16ac2e2c60"}},{"fullUrl":"https://madie.cms.gov/Observation/5f2b24a96f0b7100008d9c0d","resource":{"resourceType":"Observation","id":"6cb4c494-2b8b-4ace-8196-eaf58abcd404","meta":{"profile":["http://hl7.org/fhir/us/qicore/StructureDefinition/qicore-observation"]},"status":"final","category":[{"coding":[{"system":"http://terminology.hl7.org/CodeSystem/observation-category","code":"exam","display":"exam","userSelected":true}]}],"code":{"coding":[{"system":"http://loinc.org","code":"11884-4"}]},"subject":{"reference":"Patient/d73a14c5-a372-43bc-ad7c-d888e5b4bab7"},"effectiveDateTime":"2025-02-01T08:01:00.000+00:00"},"request":{"method":"PUT","url":"Observation/6cb4c494-2b8b-4ace-8196-eaf58abcd404"}},{"fullUrl":"https://madie.cms.gov/Encounter/5f21e66daca3e40000cb86cf","resource":{"resourceType":"Encounter","id":"d6b9edb4-a988-4ffb-ad6e-d0d1649804c5","meta":{"profile":["http://hl7.org/fhir/us/qicore/StructureDefinition/qicore-encounter"]},"status":"finished","class":{"system":"http://terminology.hl7.org/CodeSystem/v3-ActCode","code":"IMP","display":"inpatient encounter"},"type":[{"coding":[{"system":"http://snomed.info/sct","code":"183452005"}]}],"subject":{"reference":"Patient/d73a14c5-a372-43bc-ad7c-d888e5b4bab7"},"period":{"start":"2025-02-01T08:00:00.000Z","end":"2025-02-05T08:15:00.000Z"}},"request":{"method":"PUT","url":"Encounter/d6b9edb4-a988-4ffb-ad6e-d0d1649804c5"}},{"fullUrl":"https://madie.cms.gov/Coverage/5f2c54181c76ba5c99605813","resource":{"resourceType":"Coverage","id":"47c7a06a-35b3-4c18-905f-b9a2a41850ac","status":"active","beneficiary":{"reference":"Patient/d73a14c5-a372-43bc-ad7c-d888e5b4bab7"},"period":{"start":"2004-02-01T08:00:00.000Z"},"payor":[{"reference":"Organization/4d7da20f-8773-4347-8f6b-80adcdcee1f4"}]},"request":{"method":"PUT","url":"Coverage/47c7a06a-35b3-4c18-905f-b9a2a41850ac"}},{"fullUrl":"https://madie.cms.gov/Procedure/5f21e716aca3e40000cb87ee","resource":{"resourceType":"Procedure","id":"014cda8d-6d5b-49f0-816c-1f4be503b534","meta":{"profile":["http://hl7.org/fhir/us/qicore/StructureDefinition/qicore-procedure"]},"extension":[{"url":"http://hl7.org/fhir/us/qicore/StructureDefinition/qicore-recorded","valueDateTime":"2013-04-05T09:35:00-04:00"}],"status":"completed","code":{"coding":[{"system":"http://snomed.info/sct","code":"10745001"}]},"subject":{"reference":"Patient/d73a14c5-a372-43bc-ad7c-d888e5b4bab7"},"performedPeriod":{"start":"2025-02-01T08:00:00.000Z","end":"2025-02-05T08:15:00.000Z"}},"request":{"method":"PUT","url":"Procedure/014cda8d-6d5b-49f0-816c-1f4be503b534"}},{"fullUrl":"https://madie.cms.gov/Procedure/CardiacConversion","resource":{"resourceType":"Procedure","id":"d2f86c5b-b244-4140-933f-ac4c8a2e3cc3","meta":{"profile":["http://hl7.org/fhir/us/qicore/StructureDefinition/qicore-procedure"]},"extension":[{"url":"http://hl7.org/fhir/us/qicore/StructureDefinition/qicore-recorded","valueDateTime":"2025-02-01T00:01:00-04:00"}],"status":"completed","code":{"coding":[{"system":"http://snomed.info/sct","code":"250041003"}]},"subject":{"reference":"Patient/d73a14c5-a372-43bc-ad7c-d888e5b4bab7"},"performedPeriod":{"start":"2025-02-04T00:00:00.000Z","end":"2025-02-04T11:59:00.000Z"}},"request":{"method":"PUT","url":"Procedure/d2f86c5b-b244-4140-933f-ac4c8a2e3cc3"}},{"fullUrl":"https://madie.cms.gov/Procedure/TempTracheostomy","resource":{"resourceType":"Procedure","id":"9e1cce9c-195b-42ea-a35e-27e878fd1dbf","meta":{"profile":["http://hl7.org/fhir/us/qicore/StructureDefinition/qicore-procedure"]},"extension":[{"url":"http://hl7.org/fhir/us/qicore/StructureDefinition/qicore-recorded","valueDateTime":"2025-02-01T00:01:00-04:00"}],"status":"completed","code":{"coding":[{"system":"http://www.cms.gov/Medicare/Coding/ICD10","code":"0B114F4","userSelected":true}]},"subject":{"reference":"Patient/d73a14c5-a372-43bc-ad7c-d888e5b4bab7"},"performedPeriod":{"start":"2025-02-04T00:00:00.000Z","end":"2025-02-04T11:59:00.000Z"}},"request":{"method":"PUT","url":"Procedure/9e1cce9c-195b-42ea-a35e-27e878fd1dbf"}},{"fullUrl":"https://madie.cms.gov/Procedure/Ventilation","resource":{"resourceType":"Procedure","id":"26b712da-ae93-4fea-ace1-c4df0632876b","meta":{"profile":["http://hl7.org/fhir/us/qicore/StructureDefinition/qicore-procedure"]},"extension":[{"url":"http://hl7.org/fhir/us/qicore/StructureDefinition/qicore-recorded","valueDateTime":"2025-02-01T00:01:00-04:00"}],"status":"completed","code":{"coding":[{"system":"http://www.cms.gov/Medicare/Coding/ICD10","code":"5A1955Z","userSelected":true}]},"subject":{"reference":"Patient/d73a14c5-a372-43bc-ad7c-d888e5b4bab7"},"performedPeriod":{"start":"2025-02-04T00:00:00.000Z","end":"2025-02-04T11:59:00.000Z"}},"request":{"method":"PUT","url":"Procedure/26b712da-ae93-4fea-ace1-c4df0632876b"}},{"fullUrl":"https://madie.cms.gov/Organization/123456","resource":{"resourceType":"Organization","id":"4d7da20f-8773-4347-8f6b-80adcdcee1f4","meta":{"profile":["http://hl7.org/fhir/us/qicore/StructureDefinition/qicore-organization"]},"identifier":[{"use":"temp","system":"urn:oid:2.16.840.1.113883.4.4","value":"21-3259825"}],"active":true,"type":[{"coding":[{"system":"http://terminology.hl7.org/CodeSystem/organization-type","code":"pay","display":"Payer"}]}],"name":"Blue Cross Blue Shield of Texas","telecom":[{"system":"phone","value":"(+1) 972-766-6900"}],"address":[{"use":"billing","type":"postal","line":["P.O. Box 660044"],"city":"Dallas","state":"TX","postalCode":"75266-0044","country":"USA"}]},"request":{"method":"PUT","url":"Organization/4d7da20f-8773-4347-8f6b-80adcdcee1f4"}},{"fullUrl":"https://madie.cms.gov/Practitioner/practitioner-123456","resource":{"resourceType":"Practitioner","id":"900bbbe7-4e52-4055-a933-f16eb6d2ded3","identifier":[{"system":"http://hl7.org/fhir/sid/us-npi","value":"123456"}],"name":[{"family":"Evil","prefix":["Dr"]}]},"request":{"method":"PUT","url":"Practitioner/900bbbe7-4e52-4055-a933-f16eb6d2ded3"}},{"fullUrl":"https://madie.cms.gov/MeasureReport/ab2e11e6-f0b6-4f41-bfaf-28c23973c785","resource":{"resourceType":"MeasureReport","id":"ab2e11e6-f0b6-4f41-bfaf-28c23973c785","meta":{"profile":["http://hl7.org/fhir/us/cqfmeasures/StructureDefinition/test-case-cqfm"]},"contained":[{"resourceType":"Parameters","id":"fb35d746-6c75-41a9-a03d-0fded7a35129-parameters","parameter":[{"name":"subject","valueString":"d73a14c5-a372-43bc-ad7c-d888e5b4bab7"}]}],"extension":[{"url":"http://hl7.org/fhir/us/cqfmeasures/StructureDefinition/cqfm-inputParameters","valueReference":{"reference":"#fb35d746-6c75-41a9-a03d-0fded7a35129-parameters"}},{"url":"http://hl7.org/fhir/us/cqfmeasures/StructureDefinition/cqfm-testCaseDescription","valueMarkdown":"Cardiac Conversion, Tracheostomy, or Ventilation procedures included in numerator"}],"modifierExtension":[{"url":"http://hl7.org/fhir/us/cqfmeasures/StructureDefinition/cqfm-isTestCase","valueBoolean":true}],"status":"complete","type":"individual","measure":"https://madie.cms.gov/Measure/SevereObstetricComplicationsFHIR","period":{"start":"2025-01-01","end":"2025-12-31"},"group":[{"population":[{"code":{"coding":[{"system":"http://terminology.hl7.org/CodeSystem/measure-population","code":"initial-population","display":"Initial Population"}]},"count":1},{"code":{"coding":[{"system":"http://terminology.hl7.org/CodeSystem/measure-population","code":"denominator","display":"Denominator"}]},"count":1},{"code":{"coding":[{"system":"http://terminology.hl7.org/CodeSystem/measure-population","code":"denominator-exclusion","display":"Denominator Exclusion"}]},"count":0},{"code":{"coding":[{"system":"http://terminology.hl7.org/CodeSystem/measure-population","code":"numerator","display":"Numerator"}]},"count":1},{"code":{"coding":[{"system":"http://terminology.hl7.org/CodeSystem/measure-population","code":"numerator-exclusion","display":"Numerator Exclusion"}]},"count":0}]},{"population":[{"code":{"coding":[{"system":"http://terminology.hl7.org/CodeSystem/measure-population","code":"initial-population","display":"Initial Population"}]},"count":1},{"code":{"coding":[{"system":"http://terminology.hl7.org/CodeSystem/measure-population","code":"denominator","display":"Denominator"}]},"count":1},{"code":{"coding":[{"system":"http://terminology.hl7.org/CodeSystem/measure-population","code":"denominator-exclusion","display":"Denominator Exclusion"}]},"count":0},{"code":{"coding":[{"system":"http://terminology.hl7.org/CodeSystem/measure-population","code":"numerator","display":"Numerator"}]},"count":1},{"code":{"coding":[{"system":"http://terminology.hl7.org/CodeSystem/measure-population","code":"numerator-exclusion","display":"Numerator Exclusion"}]},"count":0}]}]},"request":{"method":"PUT","url":"MeasureReport/ab2e11e6-f0b6-4f41-bfaf-28c23973c785"}}]}