{
  "resourceType": "Bundle",
  "id": "1354989465135133163",
  "type": "transaction",
  "entry": [ {
    "fullUrl": "https://madie.cms.gov/Patient/314e78ef-a347-41bb-bce3-4b4ed18999ad",
    "resource": {
      "resourceType": "Patient",
      "id": "314e78ef-a347-41bb-bce3-4b4ed18999ad",
      "meta": {
        "profile": [ "http://hl7.org/fhir/us/qicore/StructureDefinition/qicore-patient" ]
      },
      "extension": [ {
        "url": "http://hl7.org/fhir/us/core/StructureDefinition/us-core-race",
        "extension": [ {
          "url": "ombCategory",
          "valueCoding": {
            "system": "urn:oid:2.16.840.1.113883.6.238",
            "code": "1002-5",
            "display": "American Indian or Alaska Native"
          }
        }, {
          "url": "text",
          "valueString": "American Indian or Alaska Native"
        } ]
      }, {
        "url": "http://hl7.org/fhir/us/core/StructureDefinition/us-core-ethnicity",
        "extension": [ {
          "url": "ombCategory",
          "valueCoding": {
            "system": "urn:oid:2.16.840.1.113883.6.238",
            "code": "2186-5",
            "display": "Not Hispanic or Latino"
          }
        }, {
          "url": "text",
          "valueString": "Not Hispanic or Latino"
        } ]
      } ],
      "identifier": [ {
        "type": {
          "coding": [ {
            "system": "http://terminology.hl7.org/CodeSystem/v2-0203",
            "code": "MR"
          } ]
        },
        "system": "https://bonnie-fhir.healthit.gov/",
        "value": "6067458898086b57ea5aa56f"
      } ],
      "active": true,
      "name": [ {
        "use": "usual",
        "family": "DENEXCEPPop1Pass",
        "given": [ "Bradycardia " ]
      } ],
      "gender": "female",
      "birthDate": "1922-03-24"
    },
    "request": {
      "method": "PUT",
      "url": "Patient/314e78ef-a347-41bb-bce3-4b4ed18999ad"
    }
  }, {
    "fullUrl": "https://madie.cms.gov/Encounter/5c954d9bb848462de0ae6e76",
    "resource": {
      "resourceType": "Encounter",
      "id": "5c954d9bb848462de0ae6e76",
      "meta": {
        "profile": [ "http://hl7.org/fhir/us/qicore/StructureDefinition/qicore-encounter" ]
      },
      "status": "finished",
      "class": {
        "system": "http://terminology.hl7.org/CodeSystem/v3-ActCode",
        "code": "AMB",
        "display": "ambulatory encounter"
      },
      "type": [ {
        "coding": [ {
          "system": "http://www.ama-assn.org/go/cpt",
          "version": "2023",
          "code": "99205"
        } ]
      } ],
      "subject": {
        "reference": "Patient/314e78ef-a347-41bb-bce3-4b4ed18999ad"
      },
      "period": {
        "start": "2025-04-05T06:00:00+00:00",
        "end": "2025-04-05T07:00:00+00:00"
      }
    },
    "request": {
      "method": "PUT",
      "url": "Encounter/5c954d9bb848462de0ae6e76"
    }
  }, {
    "fullUrl": "https://madie.cms.gov/Encounter/5c954d9bb848462de0ae6e77",
    "resource": {
      "resourceType": "Encounter",
      "id": "5c954d9bb848462de0ae6e77",
      "meta": {
        "profile": [ "http://hl7.org/fhir/us/qicore/StructureDefinition/qicore-encounter" ]
      },
      "status": "finished",
      "class": {
        "system": "http://terminology.hl7.org/CodeSystem/v3-ActCode",
        "code": "AMB",
        "display": "ambulatory encounter"
      },
      "type": [ {
        "coding": [ {
          "system": "http://www.ama-assn.org/go/cpt",
          "version": "2023",
          "code": "99205"
        } ]
      } ],
      "subject": {
        "reference": "Patient/314e78ef-a347-41bb-bce3-4b4ed18999ad"
      },
      "period": {
        "start": "2025-07-08T09:00:00+00:00",
        "end": "2025-07-08T09:00:00+00:00"
      }
    },
    "request": {
      "method": "PUT",
      "url": "Encounter/5c954d9bb848462de0ae6e77"
    }
  }, {
    "fullUrl": "https://madie.cms.gov/Condition/5c954d9bb848462de0ae6e75",
    "resource": {
      "resourceType": "Condition",
      "id": "5c954d9bb848462de0ae6e75",
      "meta": {
        "profile": [ "http://hl7.org/fhir/us/qicore/StructureDefinition/qicore-condition" ]
      },
      "clinicalStatus": {
        "coding": [ {
          "system": "http://terminology.hl7.org/CodeSystem/condition-clinical",
          "code": "active",
          "display": "Active"
        } ]
      },
      "verificationStatus": {
        "coding": [ {
          "system": "http://terminology.hl7.org/CodeSystem/condition-ver-status",
          "code": "confirmed",
          "display": "Confirmed"
        } ]
      },
      "category": [ {
        "coding": [ {
          "system": "http://terminology.hl7.org/CodeSystem/condition-category",
          "code": "problem-list-item",
          "display": "Problem List Item"
        } ]
      } ],
      "code": {
        "coding": [ {
          "system": "http://snomed.info/sct",
          "version": "http://snomed.info/sct/731000124108/version/202303",
          "code": "29894000"
        } ]
      },
      "subject": {
        "reference": "Patient/314e78ef-a347-41bb-bce3-4b4ed18999ad"
      },
      "onsetPeriod": {
        "start": "2025-04-05T06:00:00+00:00"
      }
    },
    "request": {
      "method": "PUT",
      "url": "Condition/5c954d9bb848462de0ae6e75"
    }
  }, {
    "fullUrl": "https://madie.cms.gov/Condition/16849846513521",
    "resource": {
      "resourceType": "Condition",
      "id": "16849846513521",
      "meta": {
        "profile": [ "http://hl7.org/fhir/us/qicore/StructureDefinition/qicore-condition" ]
      },
      "clinicalStatus": {
        "coding": [ {
          "system": "http://terminology.hl7.org/CodeSystem/condition-clinical",
          "code": "active",
          "display": "Active"
        } ]
      },
      "verificationStatus": {
        "coding": [ {
          "system": "http://terminology.hl7.org/CodeSystem/condition-ver-status",
          "code": "confirmed",
          "display": "Confirmed"
        } ]
      },
      "category": [ {
        "coding": [ {
          "system": "http://terminology.hl7.org/CodeSystem/condition-category",
          "code": "problem-list-item",
          "display": "Problem List Item"
        } ]
      } ],
      "code": {
        "coding": [ {
          "system": "http://snomed.info/sct",
          "version": "http://snomed.info/sct/731000124108/version/202303",
          "code": "981000124106",
          "display": "Moderate left ventricular systolic dysfunction (disorder)"
        } ]
      },
      "subject": {
        "reference": "Patient/314e78ef-a347-41bb-bce3-4b4ed18999ad"
      },
      "onsetPeriod": {
        "start": "2025-04-05T06:00:00.000+00:00"
      }
    },
    "request": {
      "method": "PUT",
      "url": "Condition/16849846513521"
    }
  }, {
    "fullUrl": "https://madie.cms.gov/Condition/878135216854168416",
    "resource": {
      "resourceType": "Condition",
      "id": "878135216854168416",
      "meta": {
        "profile": [ "http://hl7.org/fhir/us/qicore/StructureDefinition/qicore-condition" ]
      },
      "clinicalStatus": {
        "coding": [ {
          "system": "http://terminology.hl7.org/CodeSystem/condition-clinical",
          "code": "active",
          "display": "Active"
        } ]
      },
      "verificationStatus": {
        "coding": [ {
          "system": "http://terminology.hl7.org/CodeSystem/condition-ver-status",
          "code": "confirmed",
          "display": "Confirmed"
        } ]
      },
      "category": [ {
        "coding": [ {
          "system": "http://terminology.hl7.org/CodeSystem/condition-category",
          "code": "problem-list-item",
          "display": "Problem List Item"
        } ]
      } ],
      "code": {
        "coding": [ {
          "system": "http://snomed.info/sct",
          "version": "http://snomed.info/sct/731000124108/version/202303",
          "code": "10365005",
          "display": "Right main coronary artery thrombosis (disorder)"
        } ]
      },
      "subject": {
        "reference": "Patient/314e78ef-a347-41bb-bce3-4b4ed18999ad"
      },
      "onsetPeriod": {
        "start": "2025-04-05T06:00:00.000+00:00"
      }
    },
    "request": {
      "method": "PUT",
      "url": "Condition/878135216854168416"
    }
  }, {
    "fullUrl": "https://madie.cms.gov/MeasureReport/18eab2cb-4403-4f04-bbdd-537c7192ed10",
    "resource": {
      "resourceType": "MeasureReport",
      "id": "18eab2cb-4403-4f04-bbdd-537c7192ed10",
      "meta": {
        "profile": [ "http://hl7.org/fhir/us/cqfmeasures/StructureDefinition/test-case-cqfm" ]
      },
      "contained": [ {
        "resourceType": "Parameters",
        "id": "b0d7efe5-34aa-4883-bc71-2d1c690f54ec-parameters",
        "parameter": [ {
          "name": "subject",
          "valueString": "314e78ef-a347-41bb-bce3-4b4ed18999ad"
        } ]
      } ],
      "extension": [ {
        "url": "http://hl7.org/fhir/us/cqfmeasures/StructureDefinition/cqfm-inputParameters",
        "valueReference": {
          "reference": "#b0d7efe5-34aa-4883-bc71-2d1c690f54ec-parameters"
        }
      }, {
        "url": "http://hl7.org/fhir/us/cqfmeasures/StructureDefinition/cqfm-testCaseDescription",
        "valueMarkdown": "Pt > 18, 2 visits in MP, and Bradycardia, Moderate LVSD and CAD (all with onset during 1st visit)"
      } ],
      "modifierExtension": [ {
        "url": "http://hl7.org/fhir/us/cqfmeasures/StructureDefinition/cqfm-isTestCase",
        "valueBoolean": true
      } ],
      "status": "complete",
      "type": "individual",
      "measure": "https://madie.cms.gov/Measure/CADBetaBlockerTherapyPriorMIorLVSDFHIR",
      "period": {
        "start": "2025-01-01",
        "end": "2025-12-31"
      },
      "group": [ {
        "population": [ {
          "code": {
            "coding": [ {
              "system": "http://terminology.hl7.org/CodeSystem/measure-population",
              "code": "initial-population",
              "display": "Initial Population"
            } ]
          },
          "count": 1
        }, {
          "code": {
            "coding": [ {
              "system": "http://terminology.hl7.org/CodeSystem/measure-population",
              "code": "denominator",
              "display": "Denominator"
            } ]
          },
          "count": 1
        }, {
          "code": {
            "coding": [ {
              "system": "http://terminology.hl7.org/CodeSystem/measure-population",
              "code": "numerator",
              "display": "Numerator"
            } ]
          },
          "count": 0
        }, {
          "code": {
            "coding": [ {
              "system": "http://terminology.hl7.org/CodeSystem/measure-population",
              "code": "denominator-exception",
              "display": "Denominator Exception"
            } ]
          },
          "count": 1
        } ]
      }, {
        "population": [ {
          "code": {
            "coding": [ {
              "system": "http://terminology.hl7.org/CodeSystem/measure-population",
              "code": "initial-population",
              "display": "Initial Population"
            } ]
          },
          "count": 1
        }, {
          "code": {
            "coding": [ {
              "system": "http://terminology.hl7.org/CodeSystem/measure-population",
              "code": "denominator",
              "display": "Denominator"
            } ]
          },
          "count": 0
        }, {
          "code": {
            "coding": [ {
              "system": "http://terminology.hl7.org/CodeSystem/measure-population",
              "code": "numerator",
              "display": "Numerator"
            } ]
          },
          "count": 0
        }, {
          "code": {
            "coding": [ {
              "system": "http://terminology.hl7.org/CodeSystem/measure-population",
              "code": "denominator-exception",
              "display": "Denominator Exception"
            } ]
          },
          "count": 0
        } ]
      } ],
      "evaluatedResource": [ {
        "reference": "Patient/314e78ef-a347-41bb-bce3-4b4ed18999ad"
      }, {
        "reference": "Encounter/5c954d9bb848462de0ae6e76"
      }, {
        "reference": "Encounter/5c954d9bb848462de0ae6e77"
      }, {
        "reference": "Condition/5c954d9bb848462de0ae6e75"
      }, {
        "reference": "Condition/16849846513521"
      }, {
        "reference": "Condition/878135216854168416"
      } ]
    },
    "request": {
      "method": "PUT",
      "url": "MeasureReport/18eab2cb-4403-4f04-bbdd-537c7192ed10"
    }
  } ]
}