{"resourceType":"Bundle","id":"tests-75fc7993-6b07-49f8-a8aa-747dfcbb3d8f-bundle","type":"transaction","entry":[{"fullUrl":"https://madie.cms.gov/Patient/75fc7993-6b07-49f8-a8aa-747dfcbb3d8f","resource":{"resourceType":"Patient","id":"75fc7993-6b07-49f8-a8aa-747dfcbb3d8f","meta":{"profile":["http://hl7.org/fhir/us/qicore/StructureDefinition/qicore-patient"]},"extension":[{"url":"http://hl7.org/fhir/us/core/StructureDefinition/us-core-race","extension":[{"url":"ombCategory","valueCoding":{"system":"urn:oid:2.16.840.1.113883.6.238","code":"1002-5","display":"American Indian or Alaska Native"}},{"url":"text","valueString":"American Indian or Alaska Native"}]},{"url":"http://hl7.org/fhir/us/core/StructureDefinition/us-core-ethnicity","extension":[{"url":"ombCategory","valueCoding":{"system":"urn:oid:2.16.840.1.113883.6.238","code":"2186-5","display":"Not Hispanic or Latino"}},{"url":"text","valueString":"Not Hispanic or Latino"}]}],"identifier":[{"type":{"coding":[{"system":"http://terminology.hl7.org/CodeSystem/v2-0203","code":"MR"}]},"system":"https://bonnie-fhir.healthit.gov/","value":"16586168461616"}],"active":true,"name":[{"use":"usual","family":"DENEXCEPPop2Pass","given":["BradycardiaNoQualifyingEncounter"]}],"gender":"female","birthDate":"1946-03-24"},"request":{"method":"PUT","url":"Patient/75fc7993-6b07-49f8-a8aa-747dfcbb3d8f"}},{"fullUrl":"https://madie.cms.gov/Encounter/1648941616451631631","resource":{"resourceType":"Encounter","id":"046970f3-5dee-4988-b6f3-86d3c1b071f8","meta":{"profile":["http://hl7.org/fhir/us/qicore/StructureDefinition/qicore-encounter"]},"status":"finished","class":{"system":"http://terminology.hl7.org/CodeSystem/v3-ActCode","code":"AMB","display":"ambulatory encounter"},"type":[{"coding":[{"system":"http://www.ama-assn.org/go/cpt","version":"2024","code":"99205"}]}],"subject":{"reference":"Patient/75fc7993-6b07-49f8-a8aa-747dfcbb3d8f"},"period":{"start":"2025-04-05T06:00:00+00:00","end":"2025-04-05T07:00:00+00:00"}},"request":{"method":"PUT","url":"Encounter/046970f3-5dee-4988-b6f3-86d3c1b071f8"}},{"fullUrl":"https://madie.cms.gov/Encounter/681684641684616315","resource":{"resourceType":"Encounter","id":"ba8b687a-a370-4bdf-8250-24333ff82e14","meta":{"profile":["http://hl7.org/fhir/us/qicore/StructureDefinition/qicore-encounter"]},"status":"finished","class":{"system":"http://terminology.hl7.org/CodeSystem/v3-ActCode","code":"AMB","display":"ambulatory encounter"},"type":[{"coding":[{"system":"http://www.ama-assn.org/go/cpt","version":"2024","code":"99205"}]}],"subject":{"reference":"Patient/75fc7993-6b07-49f8-a8aa-747dfcbb3d8f"},"period":{"start":"2025-07-08T09:00:00+00:00","end":"2025-07-08T09:00:00+00:00"}},"request":{"method":"PUT","url":"Encounter/ba8b687a-a370-4bdf-8250-24333ff82e14"}},{"fullUrl":"https://madie.cms.gov/Condition/4641664616316151","resource":{"resourceType":"Condition","id":"57fbb6a9-bf7a-451d-b5f1-075ababf0e93","meta":{"profile":["http://hl7.org/fhir/us/qicore/StructureDefinition/qicore-condition"]},"clinicalStatus":{"coding":[{"system":"http://terminology.hl7.org/CodeSystem/condition-clinical","code":"active","display":"Active"}]},"verificationStatus":{"coding":[{"system":"http://terminology.hl7.org/CodeSystem/condition-ver-status","code":"confirmed","display":"Confirmed"}]},"category":[{"coding":[{"system":"http://terminology.hl7.org/CodeSystem/condition-category","code":"problem-list-item","display":"Problem List Item"}]}],"code":{"coding":[{"system":"http://hl7.org/fhir/sid/icd-10-cm","version":"2024","code":"I21.01"}]},"subject":{"reference":"Patient/75fc7993-6b07-49f8-a8aa-747dfcbb3d8f"},"onsetPeriod":{"start":"2022-11-22T07:30:00+00:00","end":"2022-11-22T08:30:00+00:00"}},"request":{"method":"PUT","url":"Condition/57fbb6a9-bf7a-451d-b5f1-075ababf0e93"}},{"fullUrl":"https://madie.cms.gov/Condition/3516546161161651","resource":{"resourceType":"Condition","id":"5dc0daee-84c0-4bf7-ac3a-64f926a08796","meta":{"profile":["http://hl7.org/fhir/us/qicore/StructureDefinition/qicore-condition"]},"clinicalStatus":{"coding":[{"system":"http://terminology.hl7.org/CodeSystem/condition-clinical","code":"active","display":"Active"}]},"verificationStatus":{"coding":[{"system":"http://terminology.hl7.org/CodeSystem/condition-ver-status","code":"confirmed"}]},"category":[{"coding":[{"system":"http://terminology.hl7.org/CodeSystem/condition-category","code":"problem-list-item","display":"Problem List Item"}]}],"code":{"coding":[{"system":"http://snomed.info/sct","version":"http://snomed.info/sct/731000124108/version/20240301","code":"10365005","display":"Right main coronary artery thrombosis (disorder)"}]},"subject":{"reference":"Patient/75fc7993-6b07-49f8-a8aa-747dfcbb3d8f"},"onsetPeriod":{"start":"2025-01-21T07:00:00.000+00:00"}},"request":{"method":"PUT","url":"Condition/5dc0daee-84c0-4bf7-ac3a-64f926a08796"}},{"fullUrl":"https://madie.cms.gov/Condition/216651515135654131","resource":{"resourceType":"Condition","id":"660075f2-b78b-4646-86c3-33c192e470e9","meta":{"profile":["http://hl7.org/fhir/us/qicore/StructureDefinition/qicore-condition"]},"clinicalStatus":{"coding":[{"system":"http://terminology.hl7.org/CodeSystem/condition-clinical","code":"active","display":"Active"}]},"verificationStatus":{"coding":[{"system":"http://terminology.hl7.org/CodeSystem/condition-ver-status","code":"confirmed","display":"Confirmed"}]},"category":[{"coding":[{"system":"http://terminology.hl7.org/CodeSystem/condition-category","code":"problem-list-item","display":"Problem List Item"}]}],"code":{"coding":[{"system":"http://snomed.info/sct","version":"http://snomed.info/sct/731000124108/version/20240301","code":"29894000"}]},"subject":{"reference":"Patient/75fc7993-6b07-49f8-a8aa-747dfcbb3d8f"},"onsetPeriod":{"start":"2025-04-05T06:00:00.000+00:00"}},"request":{"method":"PUT","url":"Condition/660075f2-b78b-4646-86c3-33c192e470e9"}},{"fullUrl":"https://madie.cms.gov/MeasureReport/dfef58ec-64ef-48f2-afa1-2a601d4ea078","resource":{"resourceType":"MeasureReport","id":"dfef58ec-64ef-48f2-afa1-2a601d4ea078","meta":{"profile":["http://hl7.org/fhir/us/cqfmeasures/StructureDefinition/test-case-cqfm"]},"contained":[{"resourceType":"Parameters","id":"d7391ca1-21a6-420e-94d5-8784b624ee54-parameters","parameter":[{"name":"subject","valueString":"75fc7993-6b07-49f8-a8aa-747dfcbb3d8f"}]}],"extension":[{"url":"http://hl7.org/fhir/us/cqfmeasures/StructureDefinition/cqfm-inputParameters","valueReference":{"reference":"#d7391ca1-21a6-420e-94d5-8784b624ee54-parameters"}},{"url":"http://hl7.org/fhir/us/cqfmeasures/StructureDefinition/cqfm-testCaseDescription","valueMarkdown":"Pt > 18, 2 visits during MP, MI onset > 2 years b4 MP, CAD onset during MP b4 1st visit, and Bradycardia onset during 1st visit"}],"modifierExtension":[{"url":"http://hl7.org/fhir/us/cqfmeasures/StructureDefinition/cqfm-isTestCase","valueBoolean":true}],"status":"complete","type":"individual","measure":"https://madie.cms.gov/Measure/CADBetaBlockerTherapyPriorMIorLVSDFHIR","period":{"start":"2025-01-01","end":"2025-12-31"},"group":[{"population":[{"code":{"coding":[{"system":"http://terminology.hl7.org/CodeSystem/measure-population","code":"initial-population","display":"Initial Population"}]},"count":1},{"code":{"coding":[{"system":"http://terminology.hl7.org/CodeSystem/measure-population","code":"denominator","display":"Denominator"}]},"count":0},{"code":{"coding":[{"system":"http://terminology.hl7.org/CodeSystem/measure-population","code":"numerator","display":"Numerator"}]},"count":0},{"code":{"coding":[{"system":"http://terminology.hl7.org/CodeSystem/measure-population","code":"denominator-exception","display":"Denominator Exception"}]},"count":0}]},{"population":[{"code":{"coding":[{"system":"http://terminology.hl7.org/CodeSystem/measure-population","code":"initial-population","display":"Initial Population"}]},"count":1},{"code":{"coding":[{"system":"http://terminology.hl7.org/CodeSystem/measure-population","code":"denominator","display":"Denominator"}]},"count":1},{"code":{"coding":[{"system":"http://terminology.hl7.org/CodeSystem/measure-population","code":"numerator","display":"Numerator"}]},"count":0},{"code":{"coding":[{"system":"http://terminology.hl7.org/CodeSystem/measure-population","code":"denominator-exception","display":"Denominator Exception"}]},"count":1}]}]},"request":{"method":"PUT","url":"MeasureReport/dfef58ec-64ef-48f2-afa1-2a601d4ea078"}}]}