{"resourceType":"Bundle","id":"tests-dad1f2c7-c45e-4287-9abf-e7e6ff90f2ff-bundle","type":"transaction","entry":[{"fullUrl":"https://madie.cms.gov/Patient/dad1f2c7-c45e-4287-9abf-e7e6ff90f2ff","resource":{"resourceType":"Patient","id":"dad1f2c7-c45e-4287-9abf-e7e6ff90f2ff","meta":{"profile":["http://hl7.org/fhir/us/qicore/StructureDefinition/qicore-patient"]},"extension":[{"url":"http://hl7.org/fhir/us/core/StructureDefinition/us-core-race","extension":[{"url":"ombCategory","valueCoding":{"system":"urn:oid:2.16.840.1.113883.6.238","code":"1002-5","display":"American Indian or Alaska Native"}},{"url":"text","valueString":"American Indian or Alaska Native"}]},{"url":"http://hl7.org/fhir/us/core/StructureDefinition/us-core-ethnicity","extension":[{"url":"ombCategory","valueCoding":{"system":"urn:oid:2.16.840.1.113883.6.238","code":"2186-5","display":"Not Hispanic or Latino"}},{"url":"text","valueString":"Not Hispanic or Latino"}]}],"identifier":[{"type":{"coding":[{"system":"http://terminology.hl7.org/CodeSystem/v2-0203","code":"MR"}]},"system":"https://bonnie-fhir.healthit.gov/","value":"364531234234633413"}],"active":true,"name":[{"use":"usual","family":"NUMERPop1Pass","given":["BetaBlockerRxDuringEnc"]}],"gender":"male","birthDate":"1967-12-14"},"request":{"method":"PUT","url":"Patient/dad1f2c7-c45e-4287-9abf-e7e6ff90f2ff"}},{"fullUrl":"https://madie.cms.gov/Encounter/945634321541253","resource":{"resourceType":"Encounter","id":"945634321541253","meta":{"profile":["http://hl7.org/fhir/us/qicore/StructureDefinition/qicore-encounter"]},"status":"finished","class":{"system":"http://terminology.hl7.org/CodeSystem/v3-ActCode","code":"AMB","display":"ambulatory"},"type":[{"coding":[{"system":"http://www.ama-assn.org/go/cpt","version":"2023","code":"99202","display":"Office or other outpatient visit for the evaluation and management of a new patient, which requires a medically appropriate history and/or examination and straightforward medical decision making. When using time for code selection, 15-29 minutes of total time is spent on the date of the encounter."}]}],"subject":{"reference":"Patient/dad1f2c7-c45e-4287-9abf-e7e6ff90f2ff"},"period":{"start":"2025-02-01T12:00:00+00:00","end":"2025-02-01T13:00:00+00:00"},"length":{"value":0,"unit":"days"}},"request":{"method":"PUT","url":"Encounter/945634321541253"}},{"fullUrl":"https://madie.cms.gov/Encounter/64263426231261165","resource":{"resourceType":"Encounter","id":"64263426231261165","meta":{"profile":["http://hl7.org/fhir/us/qicore/StructureDefinition/qicore-encounter"]},"status":"finished","class":{"system":"http://terminology.hl7.org/CodeSystem/v3-ActCode","code":"AMB","display":"ambulatory"},"type":[{"coding":[{"system":"http://www.ama-assn.org/go/cpt","version":"2023","code":"99212","display":"Office or other outpatient visit for the evaluation and management of an established patient, which requires a medically appropriate history and/or examination and straightforward medical decision making. When using time for code selection, 10-19 minutes of total time is spent on the date of the encounter."}]}],"subject":{"reference":"Patient/dad1f2c7-c45e-4287-9abf-e7e6ff90f2ff"},"period":{"start":"2025-10-16T12:15:00+00:00","end":"2025-10-16T13:16:00+00:00"},"length":{"value":0,"unit":"days"}},"request":{"method":"PUT","url":"Encounter/64263426231261165"}},{"fullUrl":"https://madie.cms.gov/Condition/64312341341321314","resource":{"resourceType":"Condition","id":"64312341341321314","meta":{"profile":["http://hl7.org/fhir/us/qicore/StructureDefinition/qicore-condition"]},"clinicalStatus":{"coding":[{"system":"http://terminology.hl7.org/CodeSystem/condition-clinical","code":"active","display":"Active"}]},"verificationStatus":{"coding":[{"system":"http://terminology.hl7.org/CodeSystem/condition-ver-status","code":"confirmed","display":"Confirmed"}]},"category":[{"coding":[{"system":"http://terminology.hl7.org/CodeSystem/condition-category","code":"problem-list-item","display":"Problem List Item"}]}],"severity":{"coding":[{"system":"http://snomed.info/sct","version":"http://snomed.info/sct/731000124108/version/202303","code":"24484000","display":"Severe (severity modifier) (qualifier value)"}]},"code":{"coding":[{"system":"http://snomed.info/sct","version":"http://snomed.info/sct/731000124108/version/202303","code":"134401001"}]},"subject":{"reference":"Patient/dad1f2c7-c45e-4287-9abf-e7e6ff90f2ff"},"onsetPeriod":{"start":"2025-01-31T12:00:00+00:00"}},"request":{"method":"PUT","url":"Condition/64312341341321314"}},{"fullUrl":"https://madie.cms.gov/Condition/15424164313212412","resource":{"resourceType":"Condition","id":"15424164313212412","meta":{"profile":["http://hl7.org/fhir/us/qicore/StructureDefinition/qicore-condition"]},"clinicalStatus":{"coding":[{"system":"http://terminology.hl7.org/CodeSystem/condition-clinical","code":"active","display":"Active"}]},"verificationStatus":{"coding":[{"system":"http://terminology.hl7.org/CodeSystem/condition-ver-status","code":"confirmed","display":"Confirmed"}]},"category":[{"coding":[{"system":"http://terminology.hl7.org/CodeSystem/condition-category","code":"problem-list-item","display":"Problem List Item"}]}],"code":{"coding":[{"system":"http://snomed.info/sct","version":"http://snomed.info/sct/731000124108/version/202303","code":"10365005","display":"Right main coronary artery thrombosis (disorder)"}]},"subject":{"reference":"Patient/dad1f2c7-c45e-4287-9abf-e7e6ff90f2ff"},"onsetPeriod":{"start":"2025-10-16T00:00:00+00:00"}},"request":{"method":"PUT","url":"Condition/15424164313212412"}},{"fullUrl":"https://madie.cms.gov/Condition/5456496431313123","resource":{"resourceType":"Condition","id":"5456496431313123","meta":{"profile":["http://hl7.org/fhir/us/qicore/StructureDefinition/qicore-condition"]},"clinicalStatus":{"coding":[{"system":"http://terminology.hl7.org/CodeSystem/condition-clinical","code":"active","display":"Active"}]},"category":[{"coding":[{"system":"http://terminology.hl7.org/CodeSystem/condition-category","code":"problem-list-item","display":"Problem List Item"}]}],"code":{"coding":[{"system":"http://snomed.info/sct","version":"http://snomed.info/sct/731000124108/version/202303","code":"441509002","display":"Cardiac pacemaker in situ"}]},"subject":{"reference":"Patient/dad1f2c7-c45e-4287-9abf-e7e6ff90f2ff"},"onsetPeriod":{"start":"2025-10-16T00:00:00+00:00"}},"request":{"method":"PUT","url":"Condition/5456496431313123"}},{"fullUrl":"https://madie.cms.gov/MedicationRequest/98456234333432424324","resource":{"resourceType":"MedicationRequest","id":"98456234333432424324","meta":{"profile":["http://hl7.org/fhir/us/qicore/StructureDefinition/qicore-medicationrequest"]},"status":"active","intent":"order","medicationCodeableConcept":{"coding":[{"system":"http://www.nlm.nih.gov/research/umls/rxnorm","version":"03062023","code":"686924"}]},"subject":{"reference":"Patient/dad1f2c7-c45e-4287-9abf-e7e6ff90f2ff"},"authoredOn":"2025-10-16T12:30:00+00:00","requester":{"reference":"Practitioner/66732134132412412"},"dosageInstruction":[{"timing":{"repeat":{"boundsPeriod":{"start":"2025-10-16T12:30:00+00:00"}}}}]},"request":{"method":"PUT","url":"MedicationRequest/98456234333432424324"}},{"fullUrl":"https://madie.cms.gov/Practitioner/66732134132412412","resource":{"resourceType":"Practitioner","id":"66732134132412412","meta":{"profile":["http://hl7.org/fhir/us/qicore/StructureDefinition/qicore-practitioner"]},"identifier":[{"use":"temp","system":"urn:oid:2.16.840.1.113883.4.336","value":"Practitioner-23"}],"active":true,"name":[{"family":"Careful","given":["Adam"],"prefix":["Dr"]}],"address":[{"use":"home","line":["534 Erewhon St"],"city":"PleasantVille","state":"UT","postalCode":"84414"}],"qualification":[{"identifier":[{"system":"http://example.org/UniversityIdentifier","value":"12345"}],"code":{"coding":[{"system":"http://terminology.hl7.org/CodeSystem/v2-0360|2.7","code":"BS","display":"Bachelor of Science"}],"text":"Bachelor of Science"},"period":{"start":"1995"},"issuer":{"display":"Example University"}}]},"request":{"method":"PUT","url":"Practitioner/66732134132412412"}},{"fullUrl":"https://madie.cms.gov/MeasureReport/29a3decc-1153-4250-8385-28c250ba097b","resource":{"resourceType":"MeasureReport","id":"29a3decc-1153-4250-8385-28c250ba097b","meta":{"profile":["http://hl7.org/fhir/us/cqfmeasures/StructureDefinition/test-case-cqfm"]},"contained":[{"resourceType":"Parameters","id":"8f933a6e-6498-487f-b5e8-e330d2554963-parameters","parameter":[{"name":"subject","valueString":"dad1f2c7-c45e-4287-9abf-e7e6ff90f2ff"}]}],"extension":[{"url":"http://hl7.org/fhir/us/cqfmeasures/StructureDefinition/cqfm-inputParameters","valueReference":{"reference":"#8f933a6e-6498-487f-b5e8-e330d2554963-parameters"}},{"url":"http://hl7.org/fhir/us/cqfmeasures/StructureDefinition/cqfm-testCaseDescription","valueMarkdown":"Pt > 18, 2 visits in MP, Severe LVSD during MP b4 1st visit, CAD and Cardiac Pacemaker in Situ (both with onset on day of 2nd visit b4 visit), and Beta Blocker Rx written during encounter"}],"modifierExtension":[{"url":"http://hl7.org/fhir/us/cqfmeasures/StructureDefinition/cqfm-isTestCase","valueBoolean":true}],"status":"complete","type":"individual","measure":"https://madie.cms.gov/Measure/CADBetaBlockerTherapyPriorMIorLVSDFHIR","period":{"start":"2025-01-01","end":"2025-12-31"},"group":[{"population":[{"code":{"coding":[{"system":"http://terminology.hl7.org/CodeSystem/measure-population","code":"initial-population","display":"Initial Population"}]},"count":1},{"code":{"coding":[{"system":"http://terminology.hl7.org/CodeSystem/measure-population","code":"denominator","display":"Denominator"}]},"count":1},{"code":{"coding":[{"system":"http://terminology.hl7.org/CodeSystem/measure-population","code":"numerator","display":"Numerator"}]},"count":1},{"code":{"coding":[{"system":"http://terminology.hl7.org/CodeSystem/measure-population","code":"denominator-exception","display":"Denominator Exception"}]},"count":0}]},{"population":[{"code":{"coding":[{"system":"http://terminology.hl7.org/CodeSystem/measure-population","code":"initial-population","display":"Initial Population"}]},"count":1},{"code":{"coding":[{"system":"http://terminology.hl7.org/CodeSystem/measure-population","code":"denominator","display":"Denominator"}]},"count":0},{"code":{"coding":[{"system":"http://terminology.hl7.org/CodeSystem/measure-population","code":"numerator","display":"Numerator"}]},"count":0},{"code":{"coding":[{"system":"http://terminology.hl7.org/CodeSystem/measure-population","code":"denominator-exception","display":"Denominator Exception"}]},"count":0}]}],"evaluatedResource":[{"reference":"Patient/dad1f2c7-c45e-4287-9abf-e7e6ff90f2ff"},{"reference":"Encounter/945634321541253"},{"reference":"Encounter/64263426231261165"},{"reference":"Condition/64312341341321314"},{"reference":"Condition/15424164313212412"},{"reference":"Condition/5456496431313123"},{"reference":"MedicationRequest/98456234333432424324"},{"reference":"Practitioner/66732134132412412"}]},"request":{"method":"PUT","url":"MeasureReport/29a3decc-1153-4250-8385-28c250ba097b"}}]}