{"resourceType":"Bundle","id":"tests-9cc50dc3-f081-4ab6-bf6d-cbfabb5a2e89-bundle","type":"transaction","entry":[{"fullUrl":"https://madie.cms.gov/Patient/9cc50dc3-f081-4ab6-bf6d-cbfabb5a2e89","resource":{"resourceType":"Patient","id":"9cc50dc3-f081-4ab6-bf6d-cbfabb5a2e89","meta":{"profile":["http://hl7.org/fhir/us/qicore/StructureDefinition/qicore-patient"]},"extension":[{"url":"http://hl7.org/fhir/us/core/StructureDefinition/us-core-race","extension":[{"url":"ombCategory","valueCoding":{"system":"urn:oid:2.16.840.1.113883.6.238","code":"1002-5","display":"American Indian or Alaska Native"}},{"url":"text","valueString":"American Indian or Alaska Native"}]},{"url":"http://hl7.org/fhir/us/core/StructureDefinition/us-core-ethnicity","extension":[{"url":"ombCategory","valueCoding":{"system":"urn:oid:2.16.840.1.113883.6.238","code":"2186-5","display":"Not Hispanic or Latino"}},{"url":"text","valueString":"Not Hispanic or Latino"}]}],"identifier":[{"type":{"coding":[{"system":"http://terminology.hl7.org/CodeSystem/v2-0203","code":"MR"}]},"system":"https://bonnie-fhir.healthit.gov/","value":"4684351615401011"}],"active":true,"name":[{"use":"usual","family":"IPPass","given":["EncounterAfterMP"]}],"gender":"female","birthDate":"1957-11-01"},"request":{"method":"PUT","url":"Patient/9cc50dc3-f081-4ab6-bf6d-cbfabb5a2e89"}},{"fullUrl":"https://madie.cms.gov/Encounter/46465464166323434131","resource":{"resourceType":"Encounter","id":"46465464166323434131","meta":{"profile":["http://hl7.org/fhir/us/qicore/StructureDefinition/qicore-encounter"]},"status":"finished","class":{"system":"http://terminology.hl7.org/CodeSystem/v3-ActCode","code":"AMB","display":"ambulatory"},"type":[{"coding":[{"system":"http://www.ama-assn.org/go/cpt","version":"2023","code":"99205"}]}],"subject":{"reference":"Patient/9cc50dc3-f081-4ab6-bf6d-cbfabb5a2e89"},"period":{"start":"2025-01-22T11:30:00+00:00","end":"2025-01-22T12:30:00+00:00"},"length":{"value":0,"unit":"days"}},"request":{"method":"PUT","url":"Encounter/46465464166323434131"}},{"fullUrl":"https://madie.cms.gov/Encounter/4468414646243131351","resource":{"resourceType":"Encounter","id":"4468414646243131351","meta":{"profile":["http://hl7.org/fhir/us/qicore/StructureDefinition/qicore-encounter"]},"status":"finished","class":{"system":"http://terminology.hl7.org/CodeSystem/v3-ActCode","code":"AMB","display":"ambulatory"},"type":[{"coding":[{"system":"http://www.ama-assn.org/go/cpt","version":"2023","code":"99205"}]}],"subject":{"reference":"Patient/9cc50dc3-f081-4ab6-bf6d-cbfabb5a2e89"},"period":{"start":"2025-11-22T07:30:00+00:00","end":"2025-11-22T08:30:00+00:00"},"length":{"value":0,"unit":"days"}},"request":{"method":"PUT","url":"Encounter/4468414646243131351"}},{"fullUrl":"https://madie.cms.gov/Condition/78946813546846131636","resource":{"resourceType":"Condition","id":"78946813546846131636","meta":{"profile":["http://hl7.org/fhir/us/qicore/StructureDefinition/qicore-condition"]},"clinicalStatus":{"coding":[{"system":"http://terminology.hl7.org/CodeSystem/condition-clinical","code":"active","display":"Active"}]},"verificationStatus":{"coding":[{"system":"http://terminology.hl7.org/CodeSystem/condition-ver-status","code":"confirmed","display":"Confirmed"}]},"category":[{"coding":[{"system":"http://terminology.hl7.org/CodeSystem/condition-category","code":"problem-list-item","display":"Problem List Item"}]}],"code":{"coding":[{"system":"http://snomed.info/sct","version":"http://snomed.info/sct/731000124108/version/202303","code":"10365005","display":"Right main coronary artery thrombosis (disorder)"}]},"subject":{"reference":"Patient/9cc50dc3-f081-4ab6-bf6d-cbfabb5a2e89"},"onsetPeriod":{"start":"2025-01-21T07:00:00.000+00:00"}},"request":{"method":"PUT","url":"Condition/78946813546846131636"}},{"fullUrl":"https://madie.cms.gov/MeasureReport/dc96786b-9bb2-4026-8492-6fac395b6e8f","resource":{"resourceType":"MeasureReport","id":"dc96786b-9bb2-4026-8492-6fac395b6e8f","meta":{"profile":["http://hl7.org/fhir/us/cqfmeasures/StructureDefinition/test-case-cqfm"]},"contained":[{"resourceType":"Parameters","id":"5fc67332-bd9c-40b2-aefc-54fe452b57df-parameters","parameter":[{"name":"subject","valueString":"9cc50dc3-f081-4ab6-bf6d-cbfabb5a2e89"}]}],"extension":[{"url":"http://hl7.org/fhir/us/cqfmeasures/StructureDefinition/cqfm-inputParameters","valueReference":{"reference":"#5fc67332-bd9c-40b2-aefc-54fe452b57df-parameters"}},{"url":"http://hl7.org/fhir/us/cqfmeasures/StructureDefinition/cqfm-testCaseDescription","valueMarkdown":"Pt > 18, 2 visits (1st in MP, 2nd after MP), and CAD onset during MP b4 1st visit"}],"modifierExtension":[{"url":"http://hl7.org/fhir/us/cqfmeasures/StructureDefinition/cqfm-isTestCase","valueBoolean":true}],"status":"complete","type":"individual","measure":"https://madie.cms.gov/Measure/CADBetaBlockerTherapyPriorMIorLVSDFHIR","period":{"start":"2025-01-01","end":"2025-12-31"},"group":[{"population":[{"code":{"coding":[{"system":"http://terminology.hl7.org/CodeSystem/measure-population","code":"initial-population","display":"Initial Population"}]},"count":1},{"code":{"coding":[{"system":"http://terminology.hl7.org/CodeSystem/measure-population","code":"denominator","display":"Denominator"}]},"count":0},{"code":{"coding":[{"system":"http://terminology.hl7.org/CodeSystem/measure-population","code":"numerator","display":"Numerator"}]},"count":0},{"code":{"coding":[{"system":"http://terminology.hl7.org/CodeSystem/measure-population","code":"denominator-exception","display":"Denominator Exception"}]},"count":0}]},{"population":[{"code":{"coding":[{"system":"http://terminology.hl7.org/CodeSystem/measure-population","code":"initial-population","display":"Initial Population"}]},"count":1},{"code":{"coding":[{"system":"http://terminology.hl7.org/CodeSystem/measure-population","code":"denominator","display":"Denominator"}]},"count":0},{"code":{"coding":[{"system":"http://terminology.hl7.org/CodeSystem/measure-population","code":"numerator","display":"Numerator"}]},"count":0},{"code":{"coding":[{"system":"http://terminology.hl7.org/CodeSystem/measure-population","code":"denominator-exception","display":"Denominator Exception"}]},"count":0}]}],"evaluatedResource":[{"reference":"Patient/9cc50dc3-f081-4ab6-bf6d-cbfabb5a2e89"},{"reference":"Encounter/46465464166323434131"},{"reference":"Encounter/4468414646243131351"},{"reference":"Condition/78946813546846131636"}]},"request":{"method":"PUT","url":"MeasureReport/dc96786b-9bb2-4026-8492-6fac395b6e8f"}}]}