{"resourceType":"Bundle","id":"tests-4e2ad83d-ea31-45e7-92cb-07fe319aaf38-bundle","type":"transaction","entry":[{"fullUrl":"https://madie.cms.gov/Patient/4e2ad83d-ea31-45e7-92cb-07fe319aaf38","resource":{"resourceType":"Patient","id":"4e2ad83d-ea31-45e7-92cb-07fe319aaf38","meta":{"profile":["http://hl7.org/fhir/us/qicore/StructureDefinition/qicore-patient"]},"extension":[{"url":"http://hl7.org/fhir/us/core/StructureDefinition/us-core-race","extension":[{"url":"ombCategory","valueCoding":{"system":"urn:oid:2.16.840.1.113883.6.238","code":"1002-5","display":"American Indian or Alaska Native"}},{"url":"text","valueString":"American Indian or Alaska Native"}]},{"url":"http://hl7.org/fhir/us/core/StructureDefinition/us-core-ethnicity","extension":[{"url":"ombCategory","valueCoding":{"system":"urn:oid:2.16.840.1.113883.6.238","code":"2186-5","display":"Not Hispanic or Latino"}},{"url":"text","valueString":"Not Hispanic or Latino"}]}],"identifier":[{"type":{"coding":[{"system":"http://terminology.hl7.org/CodeSystem/v2-0203","code":"MR"}]},"system":"https://bonnie-fhir.healthit.gov/","value":"879465131313131"}],"active":true,"name":[{"use":"usual","family":"DENOMPop2Pass","given":["MI3YearsAgo"]}],"gender":"female","birthDate":"1957-11-01"},"request":{"method":"PUT","url":"Patient/4e2ad83d-ea31-45e7-92cb-07fe319aaf38"}},{"fullUrl":"https://madie.cms.gov/Encounter/15644613516533","resource":{"resourceType":"Encounter","id":"15644613516533","meta":{"profile":["http://hl7.org/fhir/us/qicore/StructureDefinition/qicore-encounter"]},"status":"finished","class":{"system":"http://terminology.hl7.org/CodeSystem/v3-ActCode","code":"AMB","display":"ambulatory"},"type":[{"coding":[{"system":"http://www.ama-assn.org/go/cpt","version":"2023","code":"99205"}]}],"subject":{"reference":"Patient/4e2ad83d-ea31-45e7-92cb-07fe319aaf38"},"period":{"start":"2025-01-22T11:30:00+00:00","end":"2025-01-22T12:30:00+00:00"},"length":{"value":0,"unit":"days"}},"request":{"method":"PUT","url":"Encounter/15644613516533"}},{"fullUrl":"https://madie.cms.gov/Encounter/68465135131313","resource":{"resourceType":"Encounter","id":"68465135131313","meta":{"profile":["http://hl7.org/fhir/us/qicore/StructureDefinition/qicore-encounter"]},"status":"finished","class":{"system":"http://terminology.hl7.org/CodeSystem/v3-ActCode","code":"AMB","display":"ambulatory"},"type":[{"coding":[{"system":"http://www.ama-assn.org/go/cpt","version":"2023","code":"99205"}]}],"subject":{"reference":"Patient/4e2ad83d-ea31-45e7-92cb-07fe319aaf38"},"period":{"start":"2025-11-22T07:30:00+00:00","end":"2025-11-22T08:30:00+00:00"},"length":{"value":0,"unit":"days"}},"request":{"method":"PUT","url":"Encounter/68465135131313"}},{"fullUrl":"https://madie.cms.gov/Condition/984351313461351","resource":{"resourceType":"Condition","id":"984351313461351","meta":{"profile":["http://hl7.org/fhir/us/qicore/StructureDefinition/qicore-condition"]},"clinicalStatus":{"coding":[{"system":"http://terminology.hl7.org/CodeSystem/condition-clinical","code":"active","display":"Active"}]},"verificationStatus":{"coding":[{"system":"http://terminology.hl7.org/CodeSystem/condition-ver-status","code":"confirmed","display":"Confirmed"}]},"category":[{"coding":[{"system":"http://terminology.hl7.org/CodeSystem/condition-category","code":"problem-list-item","display":"Problem List Item"}]}],"code":{"coding":[{"system":"http://hl7.org/fhir/sid/icd-10-cm","version":"2023","code":"I21.01"}]},"subject":{"reference":"Patient/4e2ad83d-ea31-45e7-92cb-07fe319aaf38"},"onsetPeriod":{"start":"2022-11-22T07:30:00+00:00","end":"2022-11-22T08:30:00+00:00"}},"request":{"method":"PUT","url":"Condition/984351313461351"}},{"fullUrl":"https://madie.cms.gov/Condition/465131346138751","resource":{"resourceType":"Condition","id":"465131346138751","meta":{"profile":["http://hl7.org/fhir/us/qicore/StructureDefinition/qicore-condition"]},"clinicalStatus":{"coding":[{"system":"http://terminology.hl7.org/CodeSystem/condition-clinical","code":"active","display":"Active"}]},"category":[{"coding":[{"system":"http://terminology.hl7.org/CodeSystem/condition-category","code":"problem-list-item","display":"Problem List Item"}]}],"code":{"coding":[{"system":"http://snomed.info/sct","version":"http://snomed.info/sct/731000124108/version/202303","code":"10365005","display":"Right main coronary artery thrombosis (disorder)"}]},"subject":{"reference":"Patient/4e2ad83d-ea31-45e7-92cb-07fe319aaf38"},"onsetPeriod":{"start":"2025-01-21T07:00:00.000+00:00"}},"request":{"method":"PUT","url":"Condition/465131346138751"}},{"fullUrl":"https://madie.cms.gov/MeasureReport/f5231640-5ee5-4084-a69d-02924b4110ce","resource":{"resourceType":"MeasureReport","id":"f5231640-5ee5-4084-a69d-02924b4110ce","meta":{"profile":["http://hl7.org/fhir/us/cqfmeasures/StructureDefinition/test-case-cqfm"]},"contained":[{"resourceType":"Parameters","id":"3c673cdd-20ef-4875-bfa7-b62aaacbff68-parameters","parameter":[{"name":"subject","valueString":"4e2ad83d-ea31-45e7-92cb-07fe319aaf38"}]}],"extension":[{"url":"http://hl7.org/fhir/us/cqfmeasures/StructureDefinition/cqfm-inputParameters","valueReference":{"reference":"#3c673cdd-20ef-4875-bfa7-b62aaacbff68-parameters"}},{"url":"http://hl7.org/fhir/us/cqfmeasures/StructureDefinition/cqfm-testCaseDescription","valueMarkdown":"Pt > 18, 2 qualifying ambulatory visits during MP, a CAD Dx with onset before first visit, and a MI Dx with onset > 2 years before start of MP "}],"modifierExtension":[{"url":"http://hl7.org/fhir/us/cqfmeasures/StructureDefinition/cqfm-isTestCase","valueBoolean":true}],"status":"complete","type":"individual","measure":"https://madie.cms.gov/Measure/CADBetaBlockerTherapyPriorMIorLVSDFHIR","period":{"start":"2025-01-01","end":"2025-12-31"},"group":[{"population":[{"code":{"coding":[{"system":"http://terminology.hl7.org/CodeSystem/measure-population","code":"initial-population","display":"Initial Population"}]},"count":1},{"code":{"coding":[{"system":"http://terminology.hl7.org/CodeSystem/measure-population","code":"denominator","display":"Denominator"}]},"count":0},{"code":{"coding":[{"system":"http://terminology.hl7.org/CodeSystem/measure-population","code":"numerator","display":"Numerator"}]},"count":0},{"code":{"coding":[{"system":"http://terminology.hl7.org/CodeSystem/measure-population","code":"denominator-exception","display":"Denominator Exception"}]},"count":0}]},{"population":[{"code":{"coding":[{"system":"http://terminology.hl7.org/CodeSystem/measure-population","code":"initial-population","display":"Initial Population"}]},"count":1},{"code":{"coding":[{"system":"http://terminology.hl7.org/CodeSystem/measure-population","code":"denominator","display":"Denominator"}]},"count":1},{"code":{"coding":[{"system":"http://terminology.hl7.org/CodeSystem/measure-population","code":"numerator","display":"Numerator"}]},"count":0},{"code":{"coding":[{"system":"http://terminology.hl7.org/CodeSystem/measure-population","code":"denominator-exception","display":"Denominator Exception"}]},"count":0}]}],"evaluatedResource":[{"reference":"Patient/4e2ad83d-ea31-45e7-92cb-07fe319aaf38"},{"reference":"Encounter/15644613516533"},{"reference":"Encounter/68465135131313"},{"reference":"Condition/984351313461351"},{"reference":"Condition/465131346138751"}]},"request":{"method":"PUT","url":"MeasureReport/f5231640-5ee5-4084-a69d-02924b4110ce"}}]}