{
  "resourceType": "Bundle",
  "id": "612e6f6f02c62a011f2f1da2",
  "type": "transaction",
  "entry": [ {
    "fullUrl": "https://madie.cms.gov/Patient/002fcec4-89ed-42be-a7b7-41fa0acddf8c",
    "resource": {
      "resourceType": "Patient",
      "id": "002fcec4-89ed-42be-a7b7-41fa0acddf8c",
      "meta": {
        "profile": [ "http://hl7.org/fhir/us/qicore/StructureDefinition/qicore-patient" ]
      },
      "text": {
        "status": "generated",
        "div": "<div xmlns=\"http://www.w3.org/1999/xhtml\"><div class=\"hapiHeaderText\">TestMultipleOccur1inExcl1inNum <b>NUMERPASS </b></div><table class=\"hapiPropertyTable\"><tbody><tr><td>Identifier</td><td>1d32025f189fa435c8f5577d60ac33ec63a4414947e2aa89a0a7970a5a451ef3</td></tr><tr><td>Date of birth</td><td><span>03 March 1974</span></td></tr></tbody></table></div>"
      },
      "extension": [ {
        "url": "http://hl7.org/fhir/us/core/StructureDefinition/us-core-race",
        "extension": [ {
          "url": "ombCategory",
          "valueCoding": {
            "system": "urn:oid:2.16.840.1.113883.6.238",
            "code": "1002-5",
            "display": "American Indian or Alaska Native",
            "userSelected": true
          }
        }, {
          "url": "text",
          "valueString": "American Indian or Alaska Native"
        } ]
      }, {
        "url": "http://hl7.org/fhir/us/core/StructureDefinition/us-core-ethnicity",
        "extension": [ {
          "url": "ombCategory",
          "valueCoding": {
            "system": "urn:oid:2.16.840.1.113883.6.238",
            "code": "2135-2",
            "display": "Hispanic or Latino",
            "userSelected": true
          }
        }, {
          "url": "text",
          "valueString": "Hispanic or Latino"
        } ]
      } ],
      "identifier": [ {
        "type": {
          "coding": [ {
            "system": "http://terminology.hl7.org/CodeSystem/v2-0203",
            "code": "MR"
          } ]
        },
        "system": "https://bonnie-fhir.healthit.gov/",
        "value": "612e6f6f02c62a011f2f1da2"
      } ],
      "active": true,
      "name": [ {
        "use": "usual",
        "family": "NUMERPass",
        "given": [ "TestMultipleOccur1inExcl1inNum" ]
      } ],
      "gender": "female",
      "birthDate": "1974-03-03"
    },
    "request": {
      "method": "PUT",
      "url": "Patient/002fcec4-89ed-42be-a7b7-41fa0acddf8c"
    }
  }, {
    "fullUrl": "https://madie.cms.gov/Encounter/5ce80971b848467c29eaf2c6",
    "resource": {
      "resourceType": "Encounter",
      "id": "5ce80971b848467c29eaf2c6",
      "meta": {
        "profile": [ "http://hl7.org/fhir/us/qicore/StructureDefinition/qicore-encounter" ]
      },
      "status": "finished",
      "class": {
        "system": "http://terminology.hl7.org/CodeSystem/v3-ActCode",
        "code": "IMP",
        "display": "inpatient encounter"
      },
      "type": [ {
        "coding": [ {
          "system": "http://snomed.info/sct",
          "code": "183452005"
        } ]
      } ],
      "subject": {
        "reference": "Patient/002fcec4-89ed-42be-a7b7-41fa0acddf8c"
      },
      "period": {
        "start": "2025-03-22T08:00:00+00:00",
        "end": "2025-03-26T08:15:00+00:00"
      },
      "length": {
        "value": 4,
        "unit": "days"
      },
      "location": [ {
        "location": {
          "reference": "Location/intensive-care-unit-0f90"
        },
        "period": {
          "start": "2025-03-23T09:00:00.000+00:00",
          "end": "2025-03-24T08:15:00.000+00:00"
        }
      } ]
    },
    "request": {
      "method": "PUT",
      "url": "Encounter/5ce80971b848467c29eaf2c6"
    }
  }, {
    "fullUrl": "https://madie.cms.gov/Encounter/5ce80971b848467c29eaf2c7",
    "resource": {
      "resourceType": "Encounter",
      "id": "5ce80971b848467c29eaf2c7",
      "meta": {
        "profile": [ "http://hl7.org/fhir/us/qicore/StructureDefinition/qicore-encounter" ]
      },
      "status": "finished",
      "class": {
        "system": "http://terminology.hl7.org/CodeSystem/v3-ActCode",
        "code": "EMER",
        "display": "emergency"
      },
      "type": [ {
        "coding": [ {
          "system": "http://snomed.info/sct",
          "code": "4525004"
        } ]
      } ],
      "subject": {
        "reference": "Patient/002fcec4-89ed-42be-a7b7-41fa0acddf8c"
      },
      "period": {
        "start": "2025-12-06T02:00:00+00:00",
        "end": "2025-12-06T08:15:00+00:00"
      },
      "length": {
        "value": 0,
        "unit": "days"
      }
    },
    "request": {
      "method": "PUT",
      "url": "Encounter/5ce80971b848467c29eaf2c7"
    }
  }, {
    "fullUrl": "https://madie.cms.gov/Encounter/5ce80971b848467c29eaf2c8",
    "resource": {
      "resourceType": "Encounter",
      "id": "5ce80971b848467c29eaf2c8",
      "meta": {
        "profile": [ "http://hl7.org/fhir/us/qicore/StructureDefinition/qicore-encounter" ]
      },
      "status": "finished",
      "class": {
        "system": "http://terminology.hl7.org/CodeSystem/v3-ActCode",
        "code": "IMP",
        "display": "inpatient encounter"
      },
      "type": [ {
        "coding": [ {
          "system": "http://snomed.info/sct",
          "code": "8715000"
        } ]
      } ],
      "subject": {
        "reference": "Patient/002fcec4-89ed-42be-a7b7-41fa0acddf8c"
      },
      "period": {
        "start": "2025-12-06T08:45:00+00:00",
        "end": "2025-12-30T08:15:00+00:00"
      },
      "length": {
        "value": 24,
        "unit": "days"
      },
      "location": [ {
        "location": {
          "reference": "Location/intensive-care-unit-0f91"
        },
        "period": {
          "start": "2025-12-06T09:00:00.000+00:00",
          "end": "2025-12-12T08:15:00.000+00:00"
        }
      } ]
    },
    "request": {
      "method": "PUT",
      "url": "Encounter/5ce80971b848467c29eaf2c8"
    }
  }, {
    "fullUrl": "https://madie.cms.gov/ServiceRequest/5ce80971b848467c29eaf2cb",
    "resource": {
      "resourceType": "ServiceRequest",
      "id": "5ce80971b848467c29eaf2cb",
      "meta": {
        "profile": [ "http://hl7.org/fhir/us/qicore/StructureDefinition/qicore-servicerequest" ]
      },
      "status": "active",
      "intent": "order",
      "code": {
        "coding": [ {
          "system": "http://snomed.info/sct",
          "code": "133918004"
        } ]
      },
      "subject": {
        "reference": "Patient/002fcec4-89ed-42be-a7b7-41fa0acddf8c"
      },
      "authoredOn": "2025-03-22T08:00:00+00:00"
    },
    "request": {
      "method": "PUT",
      "url": "ServiceRequest/5ce80971b848467c29eaf2cb"
    }
  }, {
    "fullUrl": "https://madie.cms.gov/Coverage/5fa041081c76ba66d995910e",
    "resource": {
      "resourceType": "Coverage",
      "id": "5fa041081c76ba66d995910e",
      "status": "active",
      "beneficiary": {
        "reference": "Patient/002fcec4-89ed-42be-a7b7-41fa0acddf8c"
      },
      "period": {
        "start": "1974-03-03T08:00:00+00:00"
      },
      "payor": [ {
        "reference": "Organization/Org-123456"
      } ]
    },
    "request": {
      "method": "PUT",
      "url": "Coverage/5fa041081c76ba66d995910e"
    }
  }, {
    "fullUrl": "https://madie.cms.gov/MedicationAdministration/5ce80971b848467c29eaf2ca",
    "resource": {
      "resourceType": "MedicationAdministration",
      "id": "5ce80971b848467c29eaf2ca",
      "meta": {
        "profile": [ "http://hl7.org/fhir/us/qicore/StructureDefinition/qicore-medicationadministration" ]
      },
      "status": "completed",
      "medicationCodeableConcept": {
        "coding": [ {
          "system": "http://www.nlm.nih.gov/research/umls/rxnorm",
          "code": "308351"
        } ]
      },
      "subject": {
        "reference": "Patient/002fcec4-89ed-42be-a7b7-41fa0acddf8c"
      },
      "effectivePeriod": {
        "start": "2025-12-06T06:30:00+00:00"
      }
    },
    "request": {
      "method": "PUT",
      "url": "MedicationAdministration/5ce80971b848467c29eaf2ca"
    }
  }, {
    "fullUrl": "https://madie.cms.gov/Location/intensive-care-unit-0f90",
    "resource": {
      "resourceType": "Location",
      "id": "intensive-care-unit-0f90",
      "meta": {
        "profile": [ "http://hl7.org/fhir/us/qicore/StructureDefinition/qicore-location" ]
      },
      "identifier": [ {
        "use": "usual",
        "system": "http://exampleoflocation.com",
        "value": "B1-S.F2"
      } ],
      "name": "Medical Surgical East, first floor",
      "type": [ {
        "coding": [ {
          "system": "https://www.cdc.gov/nhsn/cdaportal/terminology/codesystem/hsloc.html",
          "code": "1025-6",
          "display": "Trauma Critical Care",
          "userSelected": true
        } ]
      } ]
    },
    "request": {
      "method": "PUT",
      "url": "Location/intensive-care-unit-0f90"
    }
  }, {
    "fullUrl": "https://madie.cms.gov/Location/intensive-care-unit-0f91",
    "resource": {
      "resourceType": "Location",
      "id": "intensive-care-unit-0f91",
      "meta": {
        "profile": [ "http://hl7.org/fhir/us/qicore/StructureDefinition/qicore-location" ]
      },
      "identifier": [ {
        "use": "usual",
        "system": "http://exampleoflocation.com",
        "value": "B1-S.F2"
      } ],
      "name": "Medical Surgical East, first floor",
      "type": [ {
        "coding": [ {
          "system": "https://www.cdc.gov/nhsn/cdaportal/terminology/codesystem/hsloc.html",
          "code": "1025-6",
          "display": "Trauma Critical Care",
          "userSelected": true
        } ]
      } ]
    },
    "request": {
      "method": "PUT",
      "url": "Location/intensive-care-unit-0f91"
    }
  }, {
    "fullUrl": "https://madie.cms.gov/Organization/123456",
    "resource": {
      "resourceType": "Organization",
      "id": "Org-123456",
      "meta": {
        "profile": [ "http://hl7.org/fhir/us/qicore/StructureDefinition/qicore-organization" ]
      },
      "identifier": [ {
        "use": "temp",
        "system": "urn:oid:2.16.840.1.113883.4.4",
        "value": "21-3259825"
      } ],
      "active": true,
      "type": [ {
        "coding": [ {
          "system": "http://terminology.hl7.org/CodeSystem/organization-type",
          "code": "pay",
          "display": "Payer"
        } ]
      } ],
      "name": "Blue Cross Blue Shield of Texas",
      "telecom": [ {
        "system": "phone",
        "value": "(+1) 972-766-6900"
      } ],
      "address": [ {
        "use": "billing",
        "type": "postal",
        "line": [ "P.O. Box 660044" ],
        "city": "Dallas",
        "state": "TX",
        "postalCode": "75266-0044",
        "country": "USA"
      } ]
    },
    "request": {
      "method": "PUT",
      "url": "Organization/Org-123456"
    }
  }, {
    "fullUrl": "https://madie.cms.gov/Practitioner/practitioner-123456",
    "resource": {
      "resourceType": "Practitioner",
      "id": "practitioner-123456",
      "identifier": [ {
        "system": "http://hl7.org/fhir/sid/us-npi",
        "value": "123456"
      } ],
      "name": [ {
        "family": "Evil",
        "prefix": [ "Dr" ]
      } ]
    },
    "request": {
      "method": "PUT",
      "url": "Practitioner/practitioner-123456"
    }
  }, {
    "fullUrl": "https://madie.cms.gov/MeasureReport/70152b4f-1c05-4ba8-a0bb-89c3db914097",
    "resource": {
      "resourceType": "MeasureReport",
      "id": "70152b4f-1c05-4ba8-a0bb-89c3db914097",
      "meta": {
        "profile": [ "http://hl7.org/fhir/us/cqfmeasures/StructureDefinition/test-case-cqfm" ]
      },
      "contained": [ {
        "resourceType": "Parameters",
        "id": "4531503f-3f79-4cdb-9670-b8740e7c03ab-parameters",
        "parameter": [ {
          "name": "subject",
          "valueString": "002fcec4-89ed-42be-a7b7-41fa0acddf8c"
        } ]
      } ],
      "extension": [ {
        "url": "http://hl7.org/fhir/us/cqfmeasures/StructureDefinition/cqfm-inputParameters",
        "valueReference": {
          "reference": "#4531503f-3f79-4cdb-9670-b8740e7c03ab-parameters"
        }
      }, {
        "url": "http://hl7.org/fhir/us/cqfmeasures/StructureDefinition/cqfm-testCaseDescription",
        "valueMarkdown": " Patient has 2 encounters, one in DENEX due to CMO and another pass Numerator \n"
      } ],
      "modifierExtension": [ {
        "url": "http://hl7.org/fhir/us/cqfmeasures/StructureDefinition/cqfm-isTestCase",
        "valueBoolean": true
      } ],
      "status": "complete",
      "type": "individual",
      "measure": "https://madie.cms.gov/Measure/IntensiveCareUnitVenousThromboembolismProphylaxisFHIR",
      "period": {
        "start": "2025-01-01",
        "end": "2025-12-31"
      },
      "group": [ {
        "population": [ {
          "code": {
            "coding": [ {
              "system": "http://terminology.hl7.org/CodeSystem/measure-population",
              "code": "initial-population",
              "display": "Initial Population"
            } ]
          },
          "count": 2
        }, {
          "code": {
            "coding": [ {
              "system": "http://terminology.hl7.org/CodeSystem/measure-population",
              "code": "denominator",
              "display": "Denominator"
            } ]
          },
          "count": 2
        }, {
          "code": {
            "coding": [ {
              "system": "http://terminology.hl7.org/CodeSystem/measure-population",
              "code": "denominator-exclusion",
              "display": "Denominator Exclusion"
            } ]
          },
          "count": 1
        }, {
          "code": {
            "coding": [ {
              "system": "http://terminology.hl7.org/CodeSystem/measure-population",
              "code": "numerator",
              "display": "Numerator"
            } ]
          },
          "count": 1
        }, {
          "code": {
            "coding": [ {
              "system": "http://terminology.hl7.org/CodeSystem/measure-population",
              "code": "denominator-exception",
              "display": "Denominator Exception"
            } ]
          },
          "count": 0
        } ]
      } ],
      "evaluatedResource": [ {
        "reference": "Patient/002fcec4-89ed-42be-a7b7-41fa0acddf8c"
      }, {
        "reference": "Encounter/5ce80971b848467c29eaf2c6"
      }, {
        "reference": "Encounter/5ce80971b848467c29eaf2c7"
      }, {
        "reference": "Encounter/5ce80971b848467c29eaf2c8"
      }, {
        "reference": "ServiceRequest/5ce80971b848467c29eaf2cb"
      }, {
        "reference": "Coverage/5fa041081c76ba66d995910e"
      }, {
        "reference": "MedicationAdministration/5ce80971b848467c29eaf2ca"
      }, {
        "reference": "Location/intensive-care-unit-0f90"
      }, {
        "reference": "Location/intensive-care-unit-0f91"
      }, {
        "reference": "Organization/Org-123456"
      }, {
        "reference": "Practitioner/practitioner-123456"
      } ]
    },
    "request": {
      "method": "PUT",
      "url": "MeasureReport/70152b4f-1c05-4ba8-a0bb-89c3db914097"
    }
  } ]
}