{"resourceType":"Bundle","id":"tests-d5d8e66a-01da-462b-95b6-e47b16285b1f-bundle","type":"transaction","entry":[{"fullUrl":"https://madie.cms.gov/Patient/d5d8e66a-01da-462b-95b6-e47b16285b1f","resource":{"resourceType":"Patient","id":"d5d8e66a-01da-462b-95b6-e47b16285b1f","meta":{"profile":["http://hl7.org/fhir/us/qicore/StructureDefinition/qicore-patient"]},"text":{"status":"generated","div":"<div xmlns=\"http://www.w3.org/1999/xhtml\"><div class=\"hapiHeaderText\">CMPerfDurObsGT1HrBFSameDayAdm <b>DENEXPASS </b></div><table class=\"hapiPropertyTable\"><tbody><tr><td>Identifier</td><td>47c228581be8a6c28bc27fdd30fd9e3402e1823bb2e7ff7c219a929014346dba</td></tr><tr><td>Date of birth</td><td><span>03 January 1979</span></td></tr></tbody></table></div>"},"extension":[{"url":"http://hl7.org/fhir/us/core/StructureDefinition/us-core-race","extension":[{"url":"ombCategory","valueCoding":{"system":"urn:oid:2.16.840.1.113883.6.238","code":"1002-5","display":"American Indian or Alaska Native","userSelected":true}},{"url":"text","valueString":"American Indian or Alaska Native"}]},{"url":"http://hl7.org/fhir/us/core/StructureDefinition/us-core-ethnicity","extension":[{"url":"ombCategory","valueCoding":{"system":"urn:oid:2.16.840.1.113883.6.238","code":"2135-2","display":"Hispanic or Latino","userSelected":true}},{"url":"text","valueString":"Hispanic or Latino"}]}],"identifier":[{"type":{"coding":[{"system":"http://terminology.hl7.org/CodeSystem/v2-0203","code":"MR"}]},"system":"https://bonnie-fhir.healthit.gov/","value":"612e6f6902c62a011f2f1bee"}],"active":true,"name":[{"use":"usual","family":"DENEXPass","given":["CMPerfDurObsGT1HrBFSameDayAdm"]}],"gender":"female","birthDate":"1979-01-03"},"request":{"method":"PUT","url":"Patient/d5d8e66a-01da-462b-95b6-e47b16285b1f"}},{"fullUrl":"https://madie.cms.gov/Encounter/5ce80971b848467c29eaf2b6","resource":{"resourceType":"Encounter","id":"5ebf0016-4bc5-484c-8e36-b613d8738299","meta":{"profile":["http://hl7.org/fhir/us/qicore/StructureDefinition/qicore-encounter"]},"status":"finished","class":{"system":"http://terminology.hl7.org/CodeSystem/v3-ActCode","code":"EMER","display":"emergency"},"type":[{"coding":[{"system":"http://snomed.info/sct","code":"4525004"}]}],"subject":{"reference":"Patient/d5d8e66a-01da-462b-95b6-e47b16285b1f"},"period":{"start":"2025-12-04T04:00:00+00:00","end":"2025-12-04T05:00:00+00:00"},"length":{"value":0.0,"unit":"days"}},"request":{"method":"PUT","url":"Encounter/5ebf0016-4bc5-484c-8e36-b613d8738299"}},{"fullUrl":"https://madie.cms.gov/Encounter/5ce80971b848467c29eaf2b8","resource":{"resourceType":"Encounter","id":"ebe9b176-0603-47b5-b8ce-5b9738e5d97b","meta":{"profile":["http://hl7.org/fhir/us/qicore/StructureDefinition/qicore-encounter"]},"status":"finished","class":{"system":"http://terminology.hl7.org/CodeSystem/v3-ActCode","code":"IMP","display":"inpatient encounter"},"type":[{"coding":[{"system":"http://snomed.info/sct","code":"8715000"}]}],"subject":{"reference":"Patient/d5d8e66a-01da-462b-95b6-e47b16285b1f"},"period":{"start":"2025-12-04T08:00:00+00:00","end":"2025-12-30T08:15:00+00:00"},"length":{"value":26.0,"unit":"days"},"location":[{"location":{"reference":"Location/Location-1"},"period":{"start":"2025-12-26T08:00:00.000+00:00","end":"2025-12-28T08:15:00.000+00:00"}}]},"request":{"method":"PUT","url":"Encounter/ebe9b176-0603-47b5-b8ce-5b9738e5d97b"}},{"fullUrl":"https://madie.cms.gov/Encounter/6037eb155e5bfb0000d534e9","resource":{"resourceType":"Encounter","id":"6566277f-8a6c-40b0-bd2f-65542589c7d0","meta":{"profile":["http://hl7.org/fhir/us/qicore/StructureDefinition/qicore-encounter"]},"status":"finished","class":{"system":"http://terminology.hl7.org/CodeSystem/v3-ActCode","code":"OBSENC","display":"observation encounter"},"type":[{"coding":[{"system":"http://snomed.info/sct","code":"448951000124107"}]}],"subject":{"reference":"Patient/d5d8e66a-01da-462b-95b6-e47b16285b1f"},"period":{"start":"2025-12-04T05:15:00+00:00","end":"2025-12-04T06:15:00+00:00"}},"request":{"method":"PUT","url":"Encounter/6566277f-8a6c-40b0-bd2f-65542589c7d0"}},{"fullUrl":"https://madie.cms.gov/Procedure/5ce80971b848467c29eaf2b9","resource":{"resourceType":"Procedure","id":"082afd00-7402-40b1-9127-5f7e9403a6ee","meta":{"profile":["http://hl7.org/fhir/us/qicore/StructureDefinition/qicore-procedure"]},"extension":[{"url":"http://hl7.org/fhir/us/qicore/StructureDefinition/qicore-recorded","valueDateTime":"2025-12-04T06:00:00+00:00"}],"status":"completed","code":{"coding":[{"system":"http://snomed.info/sct","code":"133918004","display":"Comfort measures (regime/therapy)"}]},"subject":{"reference":"Patient/d5d8e66a-01da-462b-95b6-e47b16285b1f"},"performedPeriod":{"start":"2025-12-04T06:00:00+00:00"}},"request":{"method":"PUT","url":"Procedure/082afd00-7402-40b1-9127-5f7e9403a6ee"}},{"fullUrl":"https://madie.cms.gov/Coverage/5fa041071c76ba66d99590ff","resource":{"resourceType":"Coverage","id":"416cf29e-c121-4fd2-bfce-2b5cd7f8b640","status":"active","beneficiary":{"reference":"Patient/d5d8e66a-01da-462b-95b6-e47b16285b1f"},"period":{"start":"1974-03-03T08:00:00+00:00"},"payor":[{"reference":"Organization/880a275e-1cf2-4fb9-869b-f1d2173fdc2b"}]},"request":{"method":"PUT","url":"Coverage/416cf29e-c121-4fd2-bfce-2b5cd7f8b640"}},{"fullUrl":"https://madie.cms.gov/Location/Location-1","resource":{"resourceType":"Location","id":"0173171f-6722-4280-827a-efd7bd2b6a8a","meta":{"profile":["http://hl7.org/fhir/us/qicore/StructureDefinition/qicore-location"]},"identifier":[{"use":"usual","system":"http://exampleoflocation.com","value":"B1-S.F2"}],"name":"Medical Surgical East, first floor","type":[{"coding":[{"system":"https://www.cdc.gov/nhsn/cdaportal/terminology/codesystem/hsloc.html","version":"2020","code":"1025-6","display":"Trauma Critical Care","userSelected":true}]}]},"request":{"method":"PUT","url":"Location/0173171f-6722-4280-827a-efd7bd2b6a8a"}},{"fullUrl":"https://madie.cms.gov/Organization/123456","resource":{"resourceType":"Organization","id":"880a275e-1cf2-4fb9-869b-f1d2173fdc2b","meta":{"profile":["http://hl7.org/fhir/us/qicore/StructureDefinition/qicore-organization"]},"identifier":[{"use":"temp","system":"urn:oid:2.16.840.1.113883.4.4","value":"21-3259825"}],"active":true,"type":[{"coding":[{"system":"http://terminology.hl7.org/CodeSystem/organization-type","code":"pay","display":"Payer"}]}],"name":"Blue Cross Blue Shield of Texas","telecom":[{"system":"phone","value":"(+1) 972-766-6900"}],"address":[{"use":"billing","type":"postal","line":["P.O. Box 660044"],"city":"Dallas","state":"TX","postalCode":"75266-0044","country":"USA"}]},"request":{"method":"PUT","url":"Organization/880a275e-1cf2-4fb9-869b-f1d2173fdc2b"}},{"fullUrl":"https://madie.cms.gov/Practitioner/practitioner-123456","resource":{"resourceType":"Practitioner","id":"89ee9f0f-7a02-419e-88e4-178f96c8c2ad","identifier":[{"system":"http://hl7.org/fhir/sid/us-npi","value":"123456"}],"name":[{"family":"Evil","prefix":["Dr"]}]},"request":{"method":"PUT","url":"Practitioner/89ee9f0f-7a02-419e-88e4-178f96c8c2ad"}},{"fullUrl":"https://madie.cms.gov/MeasureReport/67ac70fd-766e-4609-9e7a-baba01dbb2ff","resource":{"resourceType":"MeasureReport","id":"67ac70fd-766e-4609-9e7a-baba01dbb2ff","meta":{"profile":["http://hl7.org/fhir/us/cqfmeasures/StructureDefinition/test-case-cqfm"]},"contained":[{"resourceType":"Parameters","id":"01868b56-624c-4887-8367-60a16cf046f4-parameters","parameter":[{"name":"subject","valueString":"d5d8e66a-01da-462b-95b6-e47b16285b1f"}]}],"extension":[{"url":"http://hl7.org/fhir/us/cqfmeasures/StructureDefinition/cqfm-inputParameters","valueReference":{"reference":"#01868b56-624c-4887-8367-60a16cf046f4-parameters"}},{"url":"http://hl7.org/fhir/us/cqfmeasures/StructureDefinition/cqfm-testCaseDescription","valueMarkdown":"meets IPP and Denominator, inpatient visit starts >1 hour after the end of Observation AND Comfort Measures are performed during Obs. This case still pass because CMO is on the same day of Adm date\n"}],"modifierExtension":[{"url":"http://hl7.org/fhir/us/cqfmeasures/StructureDefinition/cqfm-isTestCase","valueBoolean":true}],"status":"complete","type":"individual","measure":"https://madie.cms.gov/Measure/IntensiveCareUnitVenousThromboembolismProphylaxisFHIR","period":{"start":"2025-01-01","end":"2025-12-31"},"group":[{"population":[{"code":{"coding":[{"system":"http://terminology.hl7.org/CodeSystem/measure-population","code":"initial-population","display":"Initial Population"}]},"count":1},{"code":{"coding":[{"system":"http://terminology.hl7.org/CodeSystem/measure-population","code":"denominator","display":"Denominator"}]},"count":1},{"code":{"coding":[{"system":"http://terminology.hl7.org/CodeSystem/measure-population","code":"denominator-exclusion","display":"Denominator Exclusion"}]},"count":1},{"code":{"coding":[{"system":"http://terminology.hl7.org/CodeSystem/measure-population","code":"numerator","display":"Numerator"}]},"count":0},{"code":{"coding":[{"system":"http://terminology.hl7.org/CodeSystem/measure-population","code":"denominator-exception","display":"Denominator Exception"}]},"count":0}]}]},"request":{"method":"PUT","url":"MeasureReport/67ac70fd-766e-4609-9e7a-baba01dbb2ff"}}]}