{"resourceType":"Bundle","id":"tests-7572464e-7191-4b5c-bad1-c7acd195178d-bundle","type":"transaction","entry":[{"fullUrl":"https://madie.cms.gov/Patient/7572464e-7191-4b5c-bad1-c7acd195178d","resource":{"resourceType":"Patient","id":"7572464e-7191-4b5c-bad1-c7acd195178d","meta":{"profile":["http://hl7.org/fhir/us/qicore/StructureDefinition/qicore-patient"]},"text":{"status":"generated","div":"<div xmlns=\"http://www.w3.org/1999/xhtml\"><div class=\"hapiHeaderText\">TestMultipleOccur1inNum1inExcept <b>NUMERPASS </b></div><table class=\"hapiPropertyTable\"><tbody><tr><td>Identifier</td><td>7eb67ce98abae0db784097d37457cc127812e19c5da043ea7e60ae3fb3b930ef</td></tr><tr><td>Date of birth</td><td><span>03 March 1974</span></td></tr></tbody></table></div>"},"extension":[{"url":"http://hl7.org/fhir/us/core/StructureDefinition/us-core-race","extension":[{"url":"ombCategory","valueCoding":{"system":"urn:oid:2.16.840.1.113883.6.238","code":"1002-5","display":"American Indian or Alaska Native","userSelected":true}},{"url":"text","valueString":"American Indian or Alaska Native"}]},{"url":"http://hl7.org/fhir/us/core/StructureDefinition/us-core-ethnicity","extension":[{"url":"ombCategory","valueCoding":{"system":"urn:oid:2.16.840.1.113883.6.238","code":"2135-2","display":"Hispanic or Latino","userSelected":true}},{"url":"text","valueString":"Hispanic or Latino"}]}],"identifier":[{"type":{"coding":[{"system":"http://terminology.hl7.org/CodeSystem/v2-0203","code":"MR"}]},"system":"https://bonnie-fhir.healthit.gov/","value":"612e6f7102c62a011f2f1e30"}],"active":true,"name":[{"use":"usual","family":"NUMERPass","given":["TestMultipleOccur1inNum1inExcept"]}],"gender":"female","birthDate":"1974-03-03"},"request":{"method":"PUT","url":"Patient/7572464e-7191-4b5c-bad1-c7acd195178d"}},{"fullUrl":"https://madie.cms.gov/Encounter/5ce80971b848467c29eaf2cc","resource":{"resourceType":"Encounter","id":"5ce80971b848467c29eaf2cc","meta":{"profile":["http://hl7.org/fhir/us/qicore/StructureDefinition/qicore-encounter"]},"status":"finished","class":{"system":"http://terminology.hl7.org/CodeSystem/v3-ActCode","code":"IMP","display":"inpatient encounter"},"type":[{"coding":[{"system":"http://snomed.info/sct","code":"183452005"}]}],"subject":{"reference":"Patient/7572464e-7191-4b5c-bad1-c7acd195178d"},"period":{"start":"2025-03-22T08:00:00+00:00","end":"2025-03-26T08:15:00+00:00"},"length":{"value":4.0,"unit":"days"},"location":[{"location":{"reference":"Location/intensive-care-unit-0a0b"},"period":{"start":"2025-03-22T08:15:00.000+00:00","end":"2025-03-24T08:00:00.000+00:00"}}]},"request":{"method":"PUT","url":"Encounter/5ce80971b848467c29eaf2cc"}},{"fullUrl":"https://madie.cms.gov/Encounter/5ce80971b848467c29eaf2cd","resource":{"resourceType":"Encounter","id":"5ce80971b848467c29eaf2cd","meta":{"profile":["http://hl7.org/fhir/us/qicore/StructureDefinition/qicore-encounter"]},"status":"finished","class":{"system":"http://terminology.hl7.org/CodeSystem/v3-ActCode","code":"OBSENC","display":"observation encounter"},"type":[{"coding":[{"system":"http://snomed.info/sct","code":"4525004"}]}],"subject":{"reference":"Patient/7572464e-7191-4b5c-bad1-c7acd195178d"},"period":{"start":"2025-12-06T02:00:00+00:00","end":"2025-12-06T08:15:00+00:00"},"length":{"value":0.0,"unit":"days"}},"request":{"method":"PUT","url":"Encounter/5ce80971b848467c29eaf2cd"}},{"fullUrl":"https://madie.cms.gov/Encounter/5ce80971b848467c29eaf2ce","resource":{"resourceType":"Encounter","id":"5ce80971b848467c29eaf2ce","meta":{"profile":["http://hl7.org/fhir/us/qicore/StructureDefinition/qicore-encounter"]},"status":"finished","class":{"system":"http://terminology.hl7.org/CodeSystem/v3-ActCode","code":"IMP","display":"inpatient encounter"},"type":[{"coding":[{"system":"http://snomed.info/sct","code":"8715000"}]}],"subject":{"reference":"Patient/7572464e-7191-4b5c-bad1-c7acd195178d"},"period":{"start":"2025-12-06T08:45:00+00:00","end":"2025-12-30T08:15:00+00:00"},"length":{"value":24.0,"unit":"days"},"location":[{"location":{"reference":"Location/intensive-care-unit-0a0c"},"period":{"start":"2025-12-07T08:45:00.000+00:00","end":"2025-12-07T20:00:00.000+00:00"}}]},"request":{"method":"PUT","url":"Encounter/5ce80971b848467c29eaf2ce"}},{"fullUrl":"https://madie.cms.gov/Coverage/5fa041081c76ba66d9959111","resource":{"resourceType":"Coverage","id":"5fa041081c76ba66d9959111","status":"active","beneficiary":{"reference":"Patient/7572464e-7191-4b5c-bad1-c7acd195178d"},"period":{"start":"1974-03-03T08:00:00+00:00"},"payor":[{"reference":"Organization/Org-123456"}]},"request":{"method":"PUT","url":"Coverage/5fa041081c76ba66d9959111"}},{"fullUrl":"https://madie.cms.gov/Location/intensive-care-unit-0a0b","resource":{"resourceType":"Location","id":"intensive-care-unit-0a0b","meta":{"profile":["http://hl7.org/fhir/us/qicore/StructureDefinition/qicore-location"]},"identifier":[{"use":"usual","system":"http://exampleoflocation.com","value":"B1-S.F2"}],"name":"Medical Surgical East, first floor","type":[{"coding":[{"system":"https://www.cdc.gov/nhsn/cdaportal/terminology/codesystem/hsloc.html","code":"1025-6","display":"Trauma Critical Care","userSelected":true}]}]},"request":{"method":"PUT","url":"Location/intensive-care-unit-0a0b"}},{"fullUrl":"https://madie.cms.gov/Location/intensive-care-unit-0a0c","resource":{"resourceType":"Location","id":"intensive-care-unit-0a0c","meta":{"profile":["http://hl7.org/fhir/us/qicore/StructureDefinition/qicore-location"]},"identifier":[{"use":"usual","system":"http://exampleoflocation.com","value":"B1-S.F2"}],"name":"Medical Surgical East, first floor","type":[{"coding":[{"system":"https://www.cdc.gov/nhsn/cdaportal/terminology/codesystem/hsloc.html","code":"1025-6","display":"Trauma Critical Care","userSelected":true}]}]},"request":{"method":"PUT","url":"Location/intensive-care-unit-0a0c"}},{"fullUrl":"https://madie.cms.gov/Procedure/device-application-0a0d","resource":{"resourceType":"Procedure","id":"device-application-0a0d","meta":{"profile":["http://hl7.org/fhir/us/qicore/StructureDefinition/qicore-procedure"]},"extension":[{"url":"http://hl7.org/fhir/us/qicore/StructureDefinition/qicore-recorded","valueDateTime":"2025-03-26T09:35:00-04:00"}],"status":"completed","code":{"coding":[{"system":"http://snomed.info/sct","code":"229511001"}]},"subject":{"reference":"Patient/7572464e-7191-4b5c-bad1-c7acd195178d"},"performedPeriod":{"start":"2025-03-22T08:05:00.000+00:00","end":"2025-03-22T08:15:00.000+00:00"}},"request":{"method":"PUT","url":"Procedure/device-application-0a0d"}},{"fullUrl":"https://madie.cms.gov/Location/intensive-care-unit-6457","resource":{"resourceType":"Location","id":"intensive-care-unit-6457","meta":{"profile":["http://hl7.org/fhir/us/qicore/StructureDefinition/qicore-location"]},"identifier":[{"use":"usual","system":"http://exampleoflocation.com","value":"B1-S.F2"}],"name":"Medical Surgical East, first floor","type":[{"coding":[{"system":"https://www.cdc.gov/nhsn/cdaportal/terminology/codesystem/hsloc.html","code":"1025-6","display":"Trauma Critical Care","userSelected":true}]}]},"request":{"method":"PUT","url":"Location/intensive-care-unit-6457"}},{"fullUrl":"https://madie.cms.gov/Organization/123456","resource":{"resourceType":"Organization","id":"Org-123456","meta":{"profile":["http://hl7.org/fhir/us/qicore/StructureDefinition/qicore-organization"]},"identifier":[{"use":"temp","system":"urn:oid:2.16.840.1.113883.4.4","value":"21-3259825"}],"active":true,"type":[{"coding":[{"system":"http://terminology.hl7.org/CodeSystem/organization-type","code":"pay","display":"Payer"}]}],"name":"Blue Cross Blue Shield of Texas","telecom":[{"system":"phone","value":"(+1) 972-766-6900"}],"address":[{"use":"billing","type":"postal","line":["P.O. Box 660044"],"city":"Dallas","state":"TX","postalCode":"75266-0044","country":"USA"}]},"request":{"method":"PUT","url":"Organization/Org-123456"}},{"fullUrl":"https://madie.cms.gov/Practitioner/practitioner-123456","resource":{"resourceType":"Practitioner","id":"practitioner-123456","identifier":[{"system":"http://hl7.org/fhir/sid/us-npi","value":"123456"}],"name":[{"family":"Evil","prefix":["Dr"]}]},"request":{"method":"PUT","url":"Practitioner/practitioner-123456"}},{"fullUrl":"https://madie.cms.gov/MeasureReport/eff257b6-8400-463e-ac19-e38e12738603","resource":{"resourceType":"MeasureReport","id":"eff257b6-8400-463e-ac19-e38e12738603","meta":{"profile":["http://hl7.org/fhir/us/cqfmeasures/StructureDefinition/test-case-cqfm"]},"contained":[{"resourceType":"Parameters","id":"accdbbde-58e0-4596-8fd5-d101a894db9d-parameters","parameter":[{"name":"subject","valueString":"7572464e-7191-4b5c-bad1-c7acd195178d"}]}],"extension":[{"url":"http://hl7.org/fhir/us/cqfmeasures/StructureDefinition/cqfm-inputParameters","valueReference":{"reference":"#accdbbde-58e0-4596-8fd5-d101a894db9d-parameters"}},{"url":"http://hl7.org/fhir/us/cqfmeasures/StructureDefinition/cqfm-testCaseDescription","valueMarkdown":" Patient has 2 encounters, one pass Numerator one pass DenExceptions\n"}],"modifierExtension":[{"url":"http://hl7.org/fhir/us/cqfmeasures/StructureDefinition/cqfm-isTestCase","valueBoolean":true}],"status":"complete","type":"individual","measure":"https://madie.cms.gov/Measure/IntensiveCareUnitVenousThromboembolismProphylaxisFHIR","period":{"start":"2025-01-01","end":"2025-12-31"},"group":[{"population":[{"code":{"coding":[{"system":"http://terminology.hl7.org/CodeSystem/measure-population","code":"initial-population","display":"Initial Population"}]},"count":2},{"code":{"coding":[{"system":"http://terminology.hl7.org/CodeSystem/measure-population","code":"denominator","display":"Denominator"}]},"count":2},{"code":{"coding":[{"system":"http://terminology.hl7.org/CodeSystem/measure-population","code":"denominator-exclusion","display":"Denominator Exclusion"}]},"count":0},{"code":{"coding":[{"system":"http://terminology.hl7.org/CodeSystem/measure-population","code":"numerator","display":"Numerator"}]},"count":1},{"code":{"coding":[{"system":"http://terminology.hl7.org/CodeSystem/measure-population","code":"denominator-exception","display":"Denominator Exception"}]},"count":1}]}],"evaluatedResource":[{"reference":"Patient/7572464e-7191-4b5c-bad1-c7acd195178d"},{"reference":"Encounter/5ce80971b848467c29eaf2cc"},{"reference":"Encounter/5ce80971b848467c29eaf2cd"},{"reference":"Encounter/5ce80971b848467c29eaf2ce"},{"reference":"Coverage/5fa041081c76ba66d9959111"},{"reference":"Location/intensive-care-unit-0a0b"},{"reference":"Location/intensive-care-unit-0a0c"},{"reference":"Procedure/device-application-0a0d"},{"reference":"Location/intensive-care-unit-6457"},{"reference":"Organization/Org-123456"},{"reference":"Practitioner/practitioner-123456"}]},"request":{"method":"PUT","url":"MeasureReport/eff257b6-8400-463e-ac19-e38e12738603"}}]}