{"resourceType":"Bundle","id":"tests-2a49e02a-3b3c-4c0c-940f-6ed02318dac3-bundle","type":"transaction","entry":[{"fullUrl":"https://madie.cms.gov/Patient/2a49e02a-3b3c-4c0c-940f-6ed02318dac3","resource":{"resourceType":"Patient","id":"2a49e02a-3b3c-4c0c-940f-6ed02318dac3","meta":{"profile":["http://hl7.org/fhir/us/qicore/StructureDefinition/qicore-patient"]},"text":{"status":"generated","div":"<div xmlns=\"http://www.w3.org/1999/xhtml\"><div class=\"hapiHeaderText\">DxVTEEnds1MinB4Enc <b>IPPASS </b></div><table class=\"hapiPropertyTable\"><tbody><tr><td>Identifier</td><td>15831b441c89561ff164a7e768ea0c51</td></tr><tr><td>Date of birth</td><td><span>03 March 1974</span></td></tr></tbody></table></div>"},"extension":[{"url":"http://hl7.org/fhir/us/core/StructureDefinition/us-core-race","extension":[{"url":"ombCategory","valueCoding":{"system":"urn:oid:2.16.840.1.113883.6.238","code":"1002-5","display":"American Indian or Alaska Native","userSelected":true}},{"url":"text","valueString":"American Indian or Alaska Native"}]},{"url":"http://hl7.org/fhir/us/core/StructureDefinition/us-core-ethnicity","extension":[{"url":"ombCategory","valueCoding":{"system":"urn:oid:2.16.840.1.113883.6.238","code":"2186-5","display":"Not Hispanic or Latino","userSelected":true}},{"url":"text","valueString":"Not Hispanic or Latino"}]}],"identifier":[{"type":{"coding":[{"system":"http://terminology.hl7.org/CodeSystem/v2-0203","code":"MR"}]},"system":"https://bonnie-fhir.healthit.gov/","value":"612e6ebe02c62a011f2ef6d6"}],"active":true,"name":[{"use":"usual","family":"IPPass","given":["DxVTEEnds1MinB4Enc"]}],"gender":"female","birthDate":"1974-03-03"},"request":{"method":"PUT","url":"Patient/2a49e02a-3b3c-4c0c-940f-6ed02318dac3"}},{"fullUrl":"https://madie.cms.gov/Encounter/5ce8096cb848467c29eaf084","resource":{"resourceType":"Encounter","id":"0626df0d-e025-4650-ad82-cc812c2cd164","meta":{"profile":["http://hl7.org/fhir/us/qicore/StructureDefinition/qicore-encounter"]},"status":"finished","class":{"system":"http://terminology.hl7.org/CodeSystem/v3-ActCode","code":"IMP","display":"inpatient encounter"},"type":[{"coding":[{"system":"http://snomed.info/sct","code":"8715000","display":"Hospital admission, elective (procedure)"}]}],"subject":{"reference":"Patient/2a49e02a-3b3c-4c0c-940f-6ed02318dac3"},"period":{"start":"2025-12-01T00:00:00+00:00","end":"2025-12-31T23:59:00+00:00"},"length":{"value":30.0,"unit":"days"}},"request":{"method":"PUT","url":"Encounter/0626df0d-e025-4650-ad82-cc812c2cd164"}},{"fullUrl":"https://madie.cms.gov/Coverage/5fa040ed1c76ba66d9958f22","resource":{"resourceType":"Coverage","id":"94740fc8-7152-4e63-9acc-65e0b3e6504f","status":"active","beneficiary":{"reference":"Patient/2a49e02a-3b3c-4c0c-940f-6ed02318dac3"},"period":{"start":"1974-03-03T08:00:00+00:00"},"payor":[{"reference":"Organization/880a275e-1cf2-4fb9-869b-f1d2173fdc2b"}]},"request":{"method":"PUT","url":"Coverage/94740fc8-7152-4e63-9acc-65e0b3e6504f"}},{"fullUrl":"https://madie.cms.gov/Condition/5ce8096cb848467c29eaf083","resource":{"resourceType":"Condition","id":"79dbe424-3319-4ef2-a731-69ec36faae84","meta":{"profile":["http://hl7.org/fhir/us/qicore/StructureDefinition/qicore-condition"]},"clinicalStatus":{"coding":[{"system":"http://terminology.hl7.org/CodeSystem/condition-clinical","code":"active"}]},"verificationStatus":{"coding":[{"system":"http://terminology.hl7.org/CodeSystem/condition-ver-status","code":"confirmed"}]},"category":[{"coding":[{"system":"http://terminology.hl7.org/CodeSystem/condition-category","code":"problem-list-item","display":"Problem List Item"}]}],"code":{"coding":[{"system":"http://snomed.info/sct","code":"132251000119101"}]},"subject":{"reference":"Patient/2a49e02a-3b3c-4c0c-940f-6ed02318dac3"},"onsetPeriod":{"start":"2025-11-01T00:00:00+00:00","end":"2025-11-30T23:59:00+00:00"}},"request":{"method":"PUT","url":"Condition/79dbe424-3319-4ef2-a731-69ec36faae84"}},{"fullUrl":"https://madie.cms.gov/Organization/123456","resource":{"resourceType":"Organization","id":"880a275e-1cf2-4fb9-869b-f1d2173fdc2b","meta":{"profile":["http://hl7.org/fhir/us/qicore/StructureDefinition/qicore-organization"]},"identifier":[{"use":"temp","system":"urn:oid:2.16.840.1.113883.4.4","value":"21-3259825"}],"active":true,"type":[{"coding":[{"system":"http://terminology.hl7.org/CodeSystem/organization-type","code":"pay","display":"Payer"}]}],"name":"Blue Cross Blue Shield of Texas","telecom":[{"system":"phone","value":"(+1) 972-766-6900"}],"address":[{"use":"billing","type":"postal","line":["P.O. Box 660044"],"city":"Dallas","state":"TX","postalCode":"75266-0044","country":"USA"}]},"request":{"method":"PUT","url":"Organization/880a275e-1cf2-4fb9-869b-f1d2173fdc2b"}},{"fullUrl":"https://madie.cms.gov/MeasureReport/dd6dfcbf-3755-4b4e-a8a0-4818e06114cb","resource":{"resourceType":"MeasureReport","id":"dd6dfcbf-3755-4b4e-a8a0-4818e06114cb","meta":{"profile":["http://hl7.org/fhir/us/cqfmeasures/StructureDefinition/test-case-cqfm"]},"contained":[{"resourceType":"Parameters","id":"6e9910df-602f-4765-9338-7708c7bf2dd0-parameters","parameter":[{"name":"subject","valueString":"2a49e02a-3b3c-4c0c-940f-6ed02318dac3"}]}],"extension":[{"url":"http://hl7.org/fhir/us/cqfmeasures/StructureDefinition/cqfm-inputParameters","valueReference":{"reference":"#6e9910df-602f-4765-9338-7708c7bf2dd0-parameters"}},{"url":"http://hl7.org/fhir/us/cqfmeasures/StructureDefinition/cqfm-testCaseDescription","valueMarkdown":"DxVTE ends 1 min prior to inpatient admission start"}],"modifierExtension":[{"url":"http://hl7.org/fhir/us/cqfmeasures/StructureDefinition/cqfm-isTestCase","valueBoolean":true}],"status":"complete","type":"individual","measure":"https://madie.cms.gov/Measure/IntensiveCareUnitVenousThromboembolismProphylaxisFHIR","period":{"start":"2025-01-01","end":"2025-12-31"},"group":[{"population":[{"code":{"coding":[{"system":"http://terminology.hl7.org/CodeSystem/measure-population","code":"initial-population","display":"Initial Population"}]},"count":1},{"code":{"coding":[{"system":"http://terminology.hl7.org/CodeSystem/measure-population","code":"denominator","display":"Denominator"}]},"count":0},{"code":{"coding":[{"system":"http://terminology.hl7.org/CodeSystem/measure-population","code":"denominator-exclusion","display":"Denominator Exclusion"}]},"count":0},{"code":{"coding":[{"system":"http://terminology.hl7.org/CodeSystem/measure-population","code":"numerator","display":"Numerator"}]},"count":0},{"code":{"coding":[{"system":"http://terminology.hl7.org/CodeSystem/measure-population","code":"denominator-exception","display":"Denominator Exception"}]},"count":0}]}]},"request":{"method":"PUT","url":"MeasureReport/dd6dfcbf-3755-4b4e-a8a0-4818e06114cb"}}]}