{"resourceType":"Bundle","id":"tests-9ddea16c-55d3-4dda-a1d8-a256fbff0b64-bundle","type":"transaction","entry":[{"fullUrl":"https://madie.cms.gov/Patient/9ddea16c-55d3-4dda-a1d8-a256fbff0b64","resource":{"resourceType":"Patient","id":"9ddea16c-55d3-4dda-a1d8-a256fbff0b64","meta":{"profile":["http://hl7.org/fhir/us/qicore/StructureDefinition/qicore-patient"]},"text":{"status":"generated","div":"<div xmlns=\"http://www.w3.org/1999/xhtml\"><div class=\"hapiHeaderText\">MedRsnLDUHVFP1MinAFAnesEnds1DayAFICU <b>NUMERPASS </b></div><table class=\"hapiPropertyTable\"><tbody><tr><td>Identifier</td><td>c46ac45885afaf33533a822506cc9d0e</td></tr><tr><td>Date of birth</td><td><span>03 March 1974</span></td></tr></tbody></table></div>"},"extension":[{"url":"http://hl7.org/fhir/us/core/StructureDefinition/us-core-race","extension":[{"url":"ombCategory","valueCoding":{"system":"urn:oid:2.16.840.1.113883.6.238","code":"1002-5","display":"American Indian or Alaska Native","userSelected":true}},{"url":"text","valueString":"American Indian or Alaska Native"}]},{"url":"http://hl7.org/fhir/us/core/StructureDefinition/us-core-ethnicity","extension":[{"url":"ombCategory","valueCoding":{"system":"urn:oid:2.16.840.1.113883.6.238","code":"2135-2","display":"Hispanic or Latino","userSelected":true}},{"url":"text","valueString":"Hispanic or Latino"}]}],"identifier":[{"type":{"coding":[{"system":"http://terminology.hl7.org/CodeSystem/v2-0203","code":"MR"}]},"system":"https://bonnie-fhir.healthit.gov/","value":"612e6f2702c62a011f2f0db5"}],"active":true,"name":[{"use":"usual","family":"NUMERPass","given":["MedRsnLDUHVFP1MinAFAnesEnds1DayAFICU"]}],"gender":"female","birthDate":"1974-03-03"},"request":{"method":"PUT","url":"Patient/9ddea16c-55d3-4dda-a1d8-a256fbff0b64"}},{"fullUrl":"https://madie.cms.gov/Encounter/5ce8096fb848467c29eaf174","resource":{"resourceType":"Encounter","id":"5ce8096fb848467c29eaf174","meta":{"profile":["http://hl7.org/fhir/us/qicore/StructureDefinition/qicore-encounter"]},"status":"finished","class":{"system":"http://terminology.hl7.org/CodeSystem/v3-ActCode","code":"IMP","display":"inpatient encounter"},"type":[{"coding":[{"system":"http://snomed.info/sct","code":"8715000"}]}],"subject":{"reference":"Patient/9ddea16c-55d3-4dda-a1d8-a256fbff0b64"},"period":{"start":"2025-12-01T00:00:00+00:00","end":"2025-12-31T23:59:00+00:00"},"length":{"value":30.0,"unit":"days"},"location":[{"location":{"reference":"Location/intensive-care-unit-09f8"},"period":{"start":"2025-12-01T05:00:00.000+00:00","end":"2025-12-15T23:59:00.000+00:00"}}]},"request":{"method":"PUT","url":"Encounter/5ce8096fb848467c29eaf174"}},{"fullUrl":"https://madie.cms.gov/Coverage/5fa040fe1c76ba66d9959060","resource":{"resourceType":"Coverage","id":"5fa040fe1c76ba66d9959060","status":"active","beneficiary":{"reference":"Patient/9ddea16c-55d3-4dda-a1d8-a256fbff0b64"},"period":{"start":"1974-03-03T08:00:00+00:00"},"payor":[{"reference":"Organization/Org-123456"}]},"request":{"method":"PUT","url":"Coverage/5fa040fe1c76ba66d9959060"}},{"fullUrl":"https://madie.cms.gov/MedicationAdministration/5ce8096fb848467c29eaf176","resource":{"resourceType":"MedicationAdministration","id":"5ce8096fb848467c29eaf176","meta":{"profile":["http://hl7.org/fhir/us/qicore/StructureDefinition/qicore-mednotadministered"]},"extension":[{"url":"http://hl7.org/fhir/us/qicore/StructureDefinition/qicore-recorded","valueDateTime":"2025-12-02T15:11:00+00:00"}],"status":"not-done","statusReason":[{"coding":[{"system":"http://snomed.info/sct","code":"183932001","display":"Procedure contraindicated (situation)"}]}],"medicationCodeableConcept":{"coding":[{"system":"http://www.nlm.nih.gov/research/umls/rxnorm","code":"854228"}]},"subject":{"reference":"Patient/9ddea16c-55d3-4dda-a1d8-a256fbff0b64"},"effectivePeriod":{"start":"2025-12-02T15:11:00+00:00"}},"request":{"method":"PUT","url":"MedicationAdministration/5ce8096fb848467c29eaf176"}},{"fullUrl":"https://madie.cms.gov/Procedure/5ce8096fb848467c29eaf177","resource":{"resourceType":"Procedure","id":"5ce8096fb848467c29eaf177","meta":{"profile":["http://hl7.org/fhir/us/qicore/StructureDefinition/qicore-procedure"]},"extension":[{"url":"http://hl7.org/fhir/us/qicore/StructureDefinition/qicore-recorded","valueDateTime":"2012-12-04T09:35:00-04:00"}],"status":"completed","code":{"coding":[{"system":"http://snomed.info/sct","code":"18946005"}]},"subject":{"reference":"Patient/9ddea16c-55d3-4dda-a1d8-a256fbff0b64"},"performedPeriod":{"start":"2025-12-02T10:59:00+00:00","end":"2025-12-02T15:10:00+00:00"}},"request":{"method":"PUT","url":"Procedure/5ce8096fb848467c29eaf177"}},{"fullUrl":"https://madie.cms.gov/Location/intensive-care-unit-09f8","resource":{"resourceType":"Location","id":"intensive-care-unit-09f8","meta":{"profile":["http://hl7.org/fhir/us/qicore/StructureDefinition/qicore-location"]},"identifier":[{"use":"usual","system":"http://exampleoflocation.com","value":"B1-S.F2"}],"name":"Medical Surgical East, first floor","type":[{"coding":[{"system":"https://www.cdc.gov/nhsn/cdaportal/terminology/codesystem/hsloc.html","code":"1025-6","display":"Trauma Critical Care","userSelected":true}]}]},"request":{"method":"PUT","url":"Location/intensive-care-unit-09f8"}},{"fullUrl":"https://madie.cms.gov/Procedure/device-application-557b","resource":{"resourceType":"Procedure","id":"device-application-557b","meta":{"profile":["http://hl7.org/fhir/us/qicore/StructureDefinition/qicore-procedurenotdone"]},"extension":[{"url":"http://hl7.org/fhir/us/qicore/StructureDefinition/qicore-recorded","valueDateTime":"2025-12-02T15:11:00.000+00:00"}],"status":"not-done","statusReason":{"coding":[{"system":"http://snomed.info/sct","code":"183932001","display":"Procedure contraindicated (situation)","userSelected":true}]},"code":{"coding":[{"system":"http://snomed.info/sct","code":"442410008","display":"Application of venous foot pump (procedure)","userSelected":true}]},"subject":{"reference":"Patient/9ddea16c-55d3-4dda-a1d8-a256fbff0b64"},"_performedDateTime":{"extension":[{"url":"http://hl7.org/fhir/StructureDefinition/data-absent-reason","valueCode":"not-performed"}]}},"request":{"method":"PUT","url":"Procedure/device-application-557b"}},{"fullUrl":"https://madie.cms.gov/Organization/123456","resource":{"resourceType":"Organization","id":"Org-123456","meta":{"profile":["http://hl7.org/fhir/us/qicore/StructureDefinition/qicore-organization"]},"identifier":[{"use":"temp","system":"urn:oid:2.16.840.1.113883.4.4","value":"21-3259825"}],"active":true,"type":[{"coding":[{"system":"http://terminology.hl7.org/CodeSystem/organization-type","code":"pay","display":"Payer"}]}],"name":"Blue Cross Blue Shield of Texas","telecom":[{"system":"phone","value":"(+1) 972-766-6900"}],"address":[{"use":"billing","type":"postal","line":["P.O. Box 660044"],"city":"Dallas","state":"TX","postalCode":"75266-0044","country":"USA"}]},"request":{"method":"PUT","url":"Organization/Org-123456"}},{"fullUrl":"https://madie.cms.gov/Practitioner/practitioner-123456","resource":{"resourceType":"Practitioner","id":"practitioner-123456","identifier":[{"system":"http://hl7.org/fhir/sid/us-npi","value":"123456"}],"name":[{"family":"Evil","prefix":["Dr"]}]},"request":{"method":"PUT","url":"Practitioner/practitioner-123456"}},{"fullUrl":"https://madie.cms.gov/MeasureReport/c9222aef-9123-47fe-8aa0-5f18d18a8015","resource":{"resourceType":"MeasureReport","id":"c9222aef-9123-47fe-8aa0-5f18d18a8015","meta":{"profile":["http://hl7.org/fhir/us/cqfmeasures/StructureDefinition/test-case-cqfm"]},"contained":[{"resourceType":"Parameters","id":"8c2d6f76-8c1c-4c7c-ad78-fd61228be717-parameters","parameter":[{"name":"subject","valueString":"9ddea16c-55d3-4dda-a1d8-a256fbff0b64"}]}],"extension":[{"url":"http://hl7.org/fhir/us/cqfmeasures/StructureDefinition/cqfm-inputParameters","valueReference":{"reference":"#8c2d6f76-8c1c-4c7c-ad78-fd61228be717-parameters"}},{"url":"http://hl7.org/fhir/us/cqfmeasures/StructureDefinition/cqfm-testCaseDescription","valueMarkdown":"Patient has a documented reason for no LDUH and a medical reason for no IPC 1 min after anesthesia end (and anesthesia ends 1 day after ICU admission). This case will also satisfy no VTE prophylaxis due to medical reason <=1 day after ICU.start\n"}],"modifierExtension":[{"url":"http://hl7.org/fhir/us/cqfmeasures/StructureDefinition/cqfm-isTestCase","valueBoolean":true}],"status":"complete","type":"individual","measure":"https://madie.cms.gov/Measure/IntensiveCareUnitVenousThromboembolismProphylaxisFHIR","period":{"start":"2025-01-01","end":"2025-12-31"},"group":[{"population":[{"code":{"coding":[{"system":"http://terminology.hl7.org/CodeSystem/measure-population","code":"initial-population","display":"Initial Population"}]},"count":1},{"code":{"coding":[{"system":"http://terminology.hl7.org/CodeSystem/measure-population","code":"denominator","display":"Denominator"}]},"count":1},{"code":{"coding":[{"system":"http://terminology.hl7.org/CodeSystem/measure-population","code":"denominator-exclusion","display":"Denominator Exclusion"}]},"count":0},{"code":{"coding":[{"system":"http://terminology.hl7.org/CodeSystem/measure-population","code":"numerator","display":"Numerator"}]},"count":1},{"code":{"coding":[{"system":"http://terminology.hl7.org/CodeSystem/measure-population","code":"denominator-exception","display":"Denominator Exception"}]},"count":0}]}],"evaluatedResource":[{"reference":"Patient/9ddea16c-55d3-4dda-a1d8-a256fbff0b64"},{"reference":"Encounter/5ce8096fb848467c29eaf174"},{"reference":"Coverage/5fa040fe1c76ba66d9959060"},{"reference":"MedicationAdministration/5ce8096fb848467c29eaf176"},{"reference":"Procedure/5ce8096fb848467c29eaf177"},{"reference":"Location/intensive-care-unit-09f8"},{"reference":"Procedure/device-application-557b"},{"reference":"Organization/Org-123456"},{"reference":"Practitioner/practitioner-123456"}]},"request":{"method":"PUT","url":"MeasureReport/c9222aef-9123-47fe-8aa0-5f18d18a8015"}}]}