{"resourceType":"Bundle","id":"tests-88c18b5b-b5af-45a1-91c4-8b585bf6e86a-bundle","type":"transaction","entry":[{"fullUrl":"https://madie.cms.gov/Patient/88c18b5b-b5af-45a1-91c4-8b585bf6e86a","resource":{"resourceType":"Patient","id":"88c18b5b-b5af-45a1-91c4-8b585bf6e86a","meta":{"profile":["http://hl7.org/fhir/us/qicore/StructureDefinition/qicore-patient"]},"text":{"status":"generated","div":"<div xmlns=\"http://www.w3.org/1999/xhtml\"><div class=\"hapiHeaderText\">INREQ3DayAfterAnes <b>NUMERFAIL </b></div><table class=\"hapiPropertyTable\"><tbody><tr><td>Identifier</td><td>945bb3b161067acb3bc9e908f6fb2325</td></tr><tr><td>Date of birth</td><td><span>03 March 1974</span></td></tr></tbody></table></div>"},"extension":[{"url":"http://hl7.org/fhir/us/core/StructureDefinition/us-core-race","extension":[{"url":"ombCategory","valueCoding":{"system":"urn:oid:2.16.840.1.113883.6.238","code":"1002-5","display":"American Indian or Alaska Native","userSelected":true}},{"url":"text","valueString":"American Indian or Alaska Native"}]},{"url":"http://hl7.org/fhir/us/core/StructureDefinition/us-core-ethnicity","extension":[{"url":"ombCategory","valueCoding":{"system":"urn:oid:2.16.840.1.113883.6.238","code":"2135-2","display":"Hispanic or Latino","userSelected":true}},{"url":"text","valueString":"Hispanic or Latino"}]}],"identifier":[{"type":{"coding":[{"system":"http://terminology.hl7.org/CodeSystem/v2-0203","code":"MR"}]},"system":"https://bonnie-fhir.healthit.gov/","value":"612e6eed02c62a011f2f0109"}],"active":true,"name":[{"use":"usual","family":"NUMERFail","given":["INREQ3DayAfterAnes"]}],"gender":"female","birthDate":"1974-03-03"},"request":{"method":"PUT","url":"Patient/88c18b5b-b5af-45a1-91c4-8b585bf6e86a"}},{"fullUrl":"https://madie.cms.gov/Encounter/5ce8096eb848467c29eaf126","resource":{"resourceType":"Encounter","id":"fce90701-d7d1-44a3-9837-51173bf9f059","meta":{"profile":["http://hl7.org/fhir/us/qicore/StructureDefinition/qicore-encounter"]},"status":"finished","class":{"system":"http://terminology.hl7.org/CodeSystem/v3-ActCode","code":"IMP","display":"inpatient encounter"},"type":[{"coding":[{"system":"http://snomed.info/sct","code":"8715000"}]}],"subject":{"reference":"Patient/88c18b5b-b5af-45a1-91c4-8b585bf6e86a"},"period":{"start":"2025-12-04T08:00:00+00:00","end":"2025-12-30T08:15:00+00:00"},"length":{"value":26.0,"unit":"days"},"location":[{"location":{"reference":"Location/Location-1"},"period":{"start":"2025-12-06T09:00:00.000+00:00","end":"2025-12-12T08:15:00.000+00:00"}}]},"request":{"method":"PUT","url":"Encounter/fce90701-d7d1-44a3-9837-51173bf9f059"}},{"fullUrl":"https://madie.cms.gov/Coverage/5fa040f61c76ba66d9958fc1","resource":{"resourceType":"Coverage","id":"f54f2c14-ec24-4647-8290-3af4c63ec875","status":"active","beneficiary":{"reference":"Patient/88c18b5b-b5af-45a1-91c4-8b585bf6e86a"},"period":{"start":"1974-03-03T08:00:00+00:00"},"payor":[{"reference":"Organization/77e4d06f-5e3c-436a-a598-80cefcca5028"}]},"request":{"method":"PUT","url":"Coverage/f54f2c14-ec24-4647-8290-3af4c63ec875"}},{"fullUrl":"https://madie.cms.gov/Observation/5ce8096eb848467c29eaf128","resource":{"resourceType":"Observation","id":"8729d959-ed5c-42e3-96ca-f2c3d6a2cad5","meta":{"profile":["http://hl7.org/fhir/us/qicore/StructureDefinition/qicore-observation"]},"status":"corrected","category":[{"coding":[{"system":"http://terminology.hl7.org/CodeSystem/observation-category","code":"laboratory","display":"Laboratory"}]}],"code":{"coding":[{"system":"http://loinc.org","code":"34714-6"}]},"subject":{"reference":"Patient/88c18b5b-b5af-45a1-91c4-8b585bf6e86a"},"effectivePeriod":{"start":"2025-12-08T11:30:00+00:00"},"valueInteger":3},"request":{"method":"PUT","url":"Observation/8729d959-ed5c-42e3-96ca-f2c3d6a2cad5"}},{"fullUrl":"https://madie.cms.gov/Procedure/5ce8096eb848467c29eaf127","resource":{"resourceType":"Procedure","id":"e492a93d-ea12-4e80-a915-da7ba86b3edf","meta":{"profile":["http://hl7.org/fhir/us/qicore/StructureDefinition/qicore-procedure"]},"extension":[{"url":"http://hl7.org/fhir/us/qicore/StructureDefinition/qicore-recorded","valueDateTime":"2012-12-08T09:35:00-04:00"}],"status":"completed","code":{"coding":[{"system":"http://snomed.info/sct","code":"18946005"}]},"subject":{"reference":"Patient/88c18b5b-b5af-45a1-91c4-8b585bf6e86a"},"performedPeriod":{"start":"2025-12-07T10:00:00+00:00","end":"2025-12-07T10:30:00+00:00"}},"request":{"method":"PUT","url":"Procedure/e492a93d-ea12-4e80-a915-da7ba86b3edf"}},{"fullUrl":"https://madie.cms.gov/Location/Location-1","resource":{"resourceType":"Location","id":"2743d994-a87c-45f1-a411-2a21a5e88b05","meta":{"profile":["http://hl7.org/fhir/us/qicore/StructureDefinition/qicore-location"]},"identifier":[{"use":"usual","system":"http://exampleoflocation.com","value":"B1-S.F2"}],"name":"Medical Surgical East, first floor","type":[{"coding":[{"system":"https://www.cdc.gov/nhsn/cdaportal/terminology/codesystem/hsloc.html","code":"1025-6","display":"Trauma Critical Care","userSelected":true}]}]},"request":{"method":"PUT","url":"Location/2743d994-a87c-45f1-a411-2a21a5e88b05"}},{"fullUrl":"https://madie.cms.gov/Organization/123456","resource":{"resourceType":"Organization","id":"77e4d06f-5e3c-436a-a598-80cefcca5028","meta":{"profile":["http://hl7.org/fhir/us/qicore/StructureDefinition/qicore-organization"]},"identifier":[{"use":"temp","system":"urn:oid:2.16.840.1.113883.4.4","value":"21-3259825"}],"active":true,"type":[{"coding":[{"system":"http://terminology.hl7.org/CodeSystem/organization-type","code":"pay","display":"Payer"}]}],"name":"Blue Cross Blue Shield of Texas","telecom":[{"system":"phone","value":"(+1) 972-766-6900"}],"address":[{"use":"billing","type":"postal","line":["P.O. Box 660044"],"city":"Dallas","state":"TX","postalCode":"75266-0044","country":"USA"}]},"request":{"method":"PUT","url":"Organization/77e4d06f-5e3c-436a-a598-80cefcca5028"}},{"fullUrl":"https://madie.cms.gov/Practitioner/practitioner-123456","resource":{"resourceType":"Practitioner","id":"5a4e6222-0b65-4aa8-93d8-805b5b03fa4c","identifier":[{"system":"http://hl7.org/fhir/sid/us-npi","value":"123456"}],"name":[{"family":"Evil","prefix":["Dr"]}]},"request":{"method":"PUT","url":"Practitioner/5a4e6222-0b65-4aa8-93d8-805b5b03fa4c"}},{"fullUrl":"https://madie.cms.gov/MeasureReport/0b6516fb-18f7-4374-9e06-7f68e7f688fb","resource":{"resourceType":"MeasureReport","id":"0b6516fb-18f7-4374-9e06-7f68e7f688fb","meta":{"profile":["http://hl7.org/fhir/us/cqfmeasures/StructureDefinition/test-case-cqfm"]},"contained":[{"resourceType":"Parameters","id":"5e1478d8-bb2f-4ff8-8521-f667d44fd44b-parameters","parameter":[{"name":"subject","valueString":"88c18b5b-b5af-45a1-91c4-8b585bf6e86a"}]}],"extension":[{"url":"http://hl7.org/fhir/us/cqfmeasures/StructureDefinition/cqfm-inputParameters","valueReference":{"reference":"#5e1478d8-bb2f-4ff8-8521-f667d44fd44b-parameters"}},{"url":"http://hl7.org/fhir/us/cqfmeasures/StructureDefinition/cqfm-testCaseDescription","valueMarkdown":"FAIL - meets IPP, meets Denominator, INR=3 starts day after Anesthesia ends, Anes ends after start of ICU\n"}],"modifierExtension":[{"url":"http://hl7.org/fhir/us/cqfmeasures/StructureDefinition/cqfm-isTestCase","valueBoolean":true}],"status":"complete","type":"individual","measure":"https://madie.cms.gov/Measure/IntensiveCareUnitVenousThromboembolismProphylaxisFHIR","period":{"start":"2025-01-01","end":"2025-12-31"},"group":[{"population":[{"code":{"coding":[{"system":"http://terminology.hl7.org/CodeSystem/measure-population","code":"initial-population","display":"Initial Population"}]},"count":1},{"code":{"coding":[{"system":"http://terminology.hl7.org/CodeSystem/measure-population","code":"denominator","display":"Denominator"}]},"count":1},{"code":{"coding":[{"system":"http://terminology.hl7.org/CodeSystem/measure-population","code":"denominator-exclusion","display":"Denominator Exclusion"}]},"count":0},{"code":{"coding":[{"system":"http://terminology.hl7.org/CodeSystem/measure-population","code":"numerator","display":"Numerator"}]},"count":0},{"code":{"coding":[{"system":"http://terminology.hl7.org/CodeSystem/measure-population","code":"denominator-exception","display":"Denominator Exception"}]},"count":0}]}]},"request":{"method":"PUT","url":"MeasureReport/0b6516fb-18f7-4374-9e06-7f68e7f688fb"}}]}