{"resourceType":"Bundle","id":"tests-24068f4d-3179-4f2f-872e-02e3b362cac0-bundle","type":"transaction","entry":[{"fullUrl":"https://madie.cms.gov/Patient/24068f4d-3179-4f2f-872e-02e3b362cac0","resource":{"resourceType":"Patient","id":"24068f4d-3179-4f2f-872e-02e3b362cac0","meta":{"profile":["http://hl7.org/fhir/us/qicore/StructureDefinition/qicore-patient"]},"text":{"status":"generated","div":"<div xmlns=\"http://www.w3.org/1999/xhtml\"><div class=\"hapiHeaderText\">CMOPerf1minB4EncEd2DayB4Enc <b>DENEXPASS </b></div><table class=\"hapiPropertyTable\"><tbody><tr><td>Identifier</td><td>c418ae51a353c7bea9882dfcbe25293a0248f676c9c3a21849ac6b06ce037aaa</td></tr><tr><td>Date of birth</td><td><span>03 March 1974</span></td></tr></tbody></table></div>"},"extension":[{"url":"http://hl7.org/fhir/us/core/StructureDefinition/us-core-race","extension":[{"url":"ombCategory","valueCoding":{"system":"urn:oid:2.16.840.1.113883.6.238","code":"1002-5","display":"American Indian or Alaska Native","userSelected":true}},{"url":"text","valueString":"American Indian or Alaska Native"}]},{"url":"http://hl7.org/fhir/us/core/StructureDefinition/us-core-ethnicity","extension":[{"url":"ombCategory","valueCoding":{"system":"urn:oid:2.16.840.1.113883.6.238","code":"2135-2","display":"Hispanic or Latino","userSelected":true}},{"url":"text","valueString":"Hispanic or Latino"}]}],"identifier":[{"type":{"coding":[{"system":"http://terminology.hl7.org/CodeSystem/v2-0203","code":"MR"}]},"system":"https://bonnie-fhir.healthit.gov/","value":"612e6e7802c62a011f2ee7c5"}],"active":true,"name":[{"use":"usual","family":"DENEXPass","given":["CMOPerf1minB4EncEd2DayB4Enc"]}],"gender":"female","birthDate":"1974-03-03"},"request":{"method":"PUT","url":"Patient/24068f4d-3179-4f2f-872e-02e3b362cac0"}},{"fullUrl":"https://madie.cms.gov/Encounter/5ce80971b848467c29eaf2aa","resource":{"resourceType":"Encounter","id":"5ce80971b848467c29eaf2aa","meta":{"profile":["http://hl7.org/fhir/us/qicore/StructureDefinition/qicore-encounter"]},"status":"finished","class":{"system":"http://terminology.hl7.org/CodeSystem/v3-ActCode","code":"EMER","display":"emergency"},"type":[{"coding":[{"system":"http://snomed.info/sct","code":"4525004"}]}],"subject":{"reference":"Patient/24068f4d-3179-4f2f-872e-02e3b362cac0"},"period":{"start":"2025-12-02T06:00:00+00:00","end":"2025-12-02T18:30:00+00:00"},"length":{"value":0.0,"unit":"days"}},"request":{"method":"PUT","url":"Encounter/5ce80971b848467c29eaf2aa"}},{"fullUrl":"https://madie.cms.gov/Encounter/5ce80971b848467c29eaf2ab","resource":{"resourceType":"Encounter","id":"5ce80971b848467c29eaf2ab","meta":{"profile":["http://hl7.org/fhir/us/qicore/StructureDefinition/qicore-encounter"]},"status":"finished","class":{"system":"http://terminology.hl7.org/CodeSystem/v3-ActCode","code":"IMP","display":"inpatient encounter"},"type":[{"coding":[{"system":"http://snomed.info/sct","code":"8715000"}]}],"subject":{"reference":"Patient/24068f4d-3179-4f2f-872e-02e3b362cac0"},"period":{"start":"2025-12-04T08:00:00+00:00","end":"2025-12-30T08:15:00+00:00"},"length":{"value":26.0,"unit":"days"},"location":[{"location":{"reference":"Location/intensive-care-unit-7629"},"period":{"start":"2025-12-26T08:00:00.000+00:00","end":"2025-12-28T08:15:00.000+00:00"}}]},"request":{"method":"PUT","url":"Encounter/5ce80971b848467c29eaf2ab"}},{"fullUrl":"https://madie.cms.gov/Procedure/5ce80971b848467c29eaf2ac","resource":{"resourceType":"Procedure","id":"5ce80971b848467c29eaf2ac","meta":{"profile":["http://hl7.org/fhir/us/qicore/StructureDefinition/qicore-procedure"]},"extension":[{"url":"http://hl7.org/fhir/us/qicore/StructureDefinition/qicore-recorded","valueDateTime":"2012-12-05T09:35:00-04:00"}],"status":"completed","code":{"coding":[{"system":"http://snomed.info/sct","code":"133918004"}]},"subject":{"reference":"Patient/24068f4d-3179-4f2f-872e-02e3b362cac0"},"performedPeriod":{"start":"2025-12-04T07:59:00+00:00"}},"request":{"method":"PUT","url":"Procedure/5ce80971b848467c29eaf2ac"}},{"fullUrl":"https://madie.cms.gov/Coverage/5fa041071c76ba66d99590f0","resource":{"resourceType":"Coverage","id":"5fa041071c76ba66d99590f0","status":"active","beneficiary":{"reference":"Patient/24068f4d-3179-4f2f-872e-02e3b362cac0"},"period":{"start":"1974-03-03T08:00:00+00:00"},"payor":[{"reference":"Organization/Org-123456"}]},"request":{"method":"PUT","url":"Coverage/5fa041071c76ba66d99590f0"}},{"fullUrl":"https://madie.cms.gov/Location/intensive-care-unit-7629","resource":{"resourceType":"Location","id":"intensive-care-unit-7629","meta":{"profile":["http://hl7.org/fhir/us/qicore/StructureDefinition/qicore-location"]},"identifier":[{"use":"usual","system":"http://exampleoflocation.com","value":"B1-S.F2"}],"name":"Medical Surgical East, first floor","type":[{"coding":[{"system":"https://www.cdc.gov/nhsn/cdaportal/terminology/codesystem/hsloc.html","code":"1025-6","display":"Trauma Critical Care","userSelected":true}]}]},"request":{"method":"PUT","url":"Location/intensive-care-unit-7629"}},{"fullUrl":"https://madie.cms.gov/Organization/123456","resource":{"resourceType":"Organization","id":"Org-123456","meta":{"profile":["http://hl7.org/fhir/us/qicore/StructureDefinition/qicore-organization"]},"identifier":[{"use":"temp","system":"urn:oid:2.16.840.1.113883.4.4","value":"21-3259825"}],"active":true,"type":[{"coding":[{"system":"http://terminology.hl7.org/CodeSystem/organization-type","code":"pay","display":"Payer"}]}],"name":"Blue Cross Blue Shield of Texas","telecom":[{"system":"phone","value":"(+1) 972-766-6900"}],"address":[{"use":"billing","type":"postal","line":["P.O. Box 660044"],"city":"Dallas","state":"TX","postalCode":"75266-0044","country":"USA"}]},"request":{"method":"PUT","url":"Organization/Org-123456"}},{"fullUrl":"https://madie.cms.gov/Practitioner/practitioner-123456","resource":{"resourceType":"Practitioner","id":"practitioner-123456","identifier":[{"system":"http://hl7.org/fhir/sid/us-npi","value":"123456"}],"name":[{"family":"Evil","prefix":["Dr"]}]},"request":{"method":"PUT","url":"Practitioner/practitioner-123456"}},{"fullUrl":"https://madie.cms.gov/MeasureReport/fbf568b8-7c5e-4d95-a48e-4253c1460f5f","resource":{"resourceType":"MeasureReport","id":"fbf568b8-7c5e-4d95-a48e-4253c1460f5f","meta":{"profile":["http://hl7.org/fhir/us/cqfmeasures/StructureDefinition/test-case-cqfm"]},"contained":[{"resourceType":"Parameters","id":"b367cc40-f179-466b-a8f0-db99d4ad0746-parameters","parameter":[{"name":"subject","valueString":"24068f4d-3179-4f2f-872e-02e3b362cac0"}]}],"extension":[{"url":"http://hl7.org/fhir/us/cqfmeasures/StructureDefinition/cqfm-inputParameters","valueReference":{"reference":"#b367cc40-f179-466b-a8f0-db99d4ad0746-parameters"}},{"url":"http://hl7.org/fhir/us/cqfmeasures/StructureDefinition/cqfm-testCaseDescription","valueMarkdown":"meets IPP and Denominator, inpatient visit starts >1 day after the end of ED visit(Global Hosp without Ed) AND Comfort Measures are performed 1 min before EncIP,. This case passes DENEXCL because CMO is on the same day as Adm\n"}],"modifierExtension":[{"url":"http://hl7.org/fhir/us/cqfmeasures/StructureDefinition/cqfm-isTestCase","valueBoolean":true}],"status":"complete","type":"individual","measure":"https://madie.cms.gov/Measure/IntensiveCareUnitVenousThromboembolismProphylaxisFHIR","period":{"start":"2025-01-01","end":"2025-12-31"},"group":[{"population":[{"code":{"coding":[{"system":"http://terminology.hl7.org/CodeSystem/measure-population","code":"initial-population","display":"Initial Population"}]},"count":1},{"code":{"coding":[{"system":"http://terminology.hl7.org/CodeSystem/measure-population","code":"denominator","display":"Denominator"}]},"count":1},{"code":{"coding":[{"system":"http://terminology.hl7.org/CodeSystem/measure-population","code":"denominator-exclusion","display":"Denominator Exclusion"}]},"count":1},{"code":{"coding":[{"system":"http://terminology.hl7.org/CodeSystem/measure-population","code":"numerator","display":"Numerator"}]},"count":0},{"code":{"coding":[{"system":"http://terminology.hl7.org/CodeSystem/measure-population","code":"denominator-exception","display":"Denominator Exception"}]},"count":0}]}],"evaluatedResource":[{"reference":"Patient/24068f4d-3179-4f2f-872e-02e3b362cac0"},{"reference":"Encounter/5ce80971b848467c29eaf2aa"},{"reference":"Encounter/5ce80971b848467c29eaf2ab"},{"reference":"Procedure/5ce80971b848467c29eaf2ac"},{"reference":"Coverage/5fa041071c76ba66d99590f0"},{"reference":"Location/intensive-care-unit-7629"},{"reference":"Organization/Org-123456"},{"reference":"Practitioner/practitioner-123456"}]},"request":{"method":"PUT","url":"MeasureReport/fbf568b8-7c5e-4d95-a48e-4253c1460f5f"}}]}