{"resourceType":"Bundle","id":"tests-95a54d01-197e-48ef-bb48-d3d398aecbe8-bundle","type":"transaction","entry":[{"fullUrl":"https://madie.cms.gov/Patient/95a54d01-197e-48ef-bb48-d3d398aecbe8","resource":{"resourceType":"Patient","id":"95a54d01-197e-48ef-bb48-d3d398aecbe8","meta":{"profile":["http://hl7.org/fhir/us/qicore/StructureDefinition/qicore-patient"]},"text":{"status":"generated","div":"<div xmlns=\"http://www.w3.org/1999/xhtml\"><div class=\"hapiHeaderText\">PtRefMAInjXaDayOfAnes <b>NUMERPASS </b></div><table class=\"hapiPropertyTable\"><tbody><tr><td>Identifier</td><td>bec2580a47ed4bf7691b191e0654b2de</td></tr><tr><td>Date of birth</td><td><span>02 January 1974</span></td></tr></tbody></table></div>"},"extension":[{"url":"http://hl7.org/fhir/us/core/StructureDefinition/us-core-race","extension":[{"url":"ombCategory","valueCoding":{"system":"urn:oid:2.16.840.1.113883.6.238","code":"1002-5","display":"American Indian or Alaska Native","userSelected":true}},{"url":"text","valueString":"American Indian or Alaska Native"}]},{"url":"http://hl7.org/fhir/us/core/StructureDefinition/us-core-ethnicity","extension":[{"url":"ombCategory","valueCoding":{"system":"urn:oid:2.16.840.1.113883.6.238","code":"2135-2","display":"Hispanic or Latino","userSelected":true}},{"url":"text","valueString":"Hispanic or Latino"}]}],"identifier":[{"type":{"coding":[{"system":"http://terminology.hl7.org/CodeSystem/v2-0203","code":"MR"}]},"system":"https://bonnie-fhir.healthit.gov/","value":"612e6a6002c62a011f2e9dfd"}],"active":true,"name":[{"use":"usual","family":"NUMERPass","given":["PtRefMAInjXaDayOfAnes"]}],"gender":"male","birthDate":"1974-01-02"},"request":{"method":"PUT","url":"Patient/95a54d01-197e-48ef-bb48-d3d398aecbe8"}},{"fullUrl":"https://madie.cms.gov/Encounter/5ca62963b8484628b8de1ef9","resource":{"resourceType":"Encounter","id":"5ca62963b8484628b8de1ef9","meta":{"profile":["http://hl7.org/fhir/us/qicore/StructureDefinition/qicore-encounter"]},"status":"finished","class":{"system":"http://terminology.hl7.org/CodeSystem/v3-ActCode","code":"IMP","display":"inpatient encounter"},"type":[{"coding":[{"system":"http://snomed.info/sct","code":"8715000"}]}],"subject":{"reference":"Patient/95a54d01-197e-48ef-bb48-d3d398aecbe8"},"period":{"start":"2025-11-01T08:00:00+00:00","end":"2025-11-26T08:15:00+00:00"},"length":{"value":25.0,"unit":"days"},"location":[{"location":{"reference":"Location/intensive-care-unit-2312"},"period":{"start":"2025-11-04T09:00:00.000+00:00","end":"2025-11-06T08:15:00.000+00:00"}}]},"request":{"method":"PUT","url":"Encounter/5ca62963b8484628b8de1ef9"}},{"fullUrl":"https://madie.cms.gov/Coverage/5fa041491c76ba66d9959175","resource":{"resourceType":"Coverage","id":"5fa041491c76ba66d9959175","status":"active","beneficiary":{"reference":"Patient/95a54d01-197e-48ef-bb48-d3d398aecbe8"},"period":{"start":"1974-01-02T08:00:00+00:00"},"payor":[{"reference":"Organization/Org-123456"}]},"request":{"method":"PUT","url":"Coverage/5fa041491c76ba66d9959175"}},{"fullUrl":"https://madie.cms.gov/MedicationAdministration/5ca62963b8484628b8de1efa","resource":{"resourceType":"MedicationAdministration","id":"5ca62963b8484628b8de1efa","meta":{"profile":["http://hl7.org/fhir/us/qicore/StructureDefinition/qicore-mednotadministered"]},"extension":[{"url":"http://hl7.org/fhir/us/qicore/StructureDefinition/qicore-recorded","valueDateTime":"2025-11-02T11:00:00+00:00"}],"status":"not-done","statusReason":[{"coding":[{"system":"http://snomed.info/sct","code":"105480006","display":"Refusal of treatment by patient (situation)"}]}],"medicationCodeableConcept":{"coding":[{"system":"http://www.nlm.nih.gov/research/umls/rxnorm","code":"861356"}]},"subject":{"reference":"Patient/95a54d01-197e-48ef-bb48-d3d398aecbe8"},"effectivePeriod":{"start":"2025-11-02T11:00:00+00:00"}},"request":{"method":"PUT","url":"MedicationAdministration/5ca62963b8484628b8de1efa"}},{"fullUrl":"https://madie.cms.gov/Procedure/5ca62963b8484628b8de1efb","resource":{"resourceType":"Procedure","id":"5ca62963b8484628b8de1efb","meta":{"profile":["http://hl7.org/fhir/us/qicore/StructureDefinition/qicore-procedure"]},"extension":[{"url":"http://hl7.org/fhir/us/qicore/StructureDefinition/qicore-recorded","valueDateTime":"2012-11-19T09:35:00-04:00"}],"status":"completed","code":{"coding":[{"system":"http://snomed.info/sct","code":"18946005"}]},"subject":{"reference":"Patient/95a54d01-197e-48ef-bb48-d3d398aecbe8"},"performedPeriod":{"start":"2025-11-02T09:00:00+00:00","end":"2025-11-02T09:15:00+00:00"}},"request":{"method":"PUT","url":"Procedure/5ca62963b8484628b8de1efb"}},{"fullUrl":"https://madie.cms.gov/Location/intensive-care-unit-2312","resource":{"resourceType":"Location","id":"intensive-care-unit-2312","meta":{"profile":["http://hl7.org/fhir/us/qicore/StructureDefinition/qicore-location"]},"identifier":[{"use":"usual","system":"http://exampleoflocation.com","value":"B1-S.F2"}],"name":"Medical Surgical East, first floor","type":[{"coding":[{"system":"https://www.cdc.gov/nhsn/cdaportal/terminology/codesystem/hsloc.html","code":"1025-6","display":"Trauma Critical Care","userSelected":true}]}]},"request":{"method":"PUT","url":"Location/intensive-care-unit-2312"}},{"fullUrl":"https://madie.cms.gov/Organization/123456","resource":{"resourceType":"Organization","id":"Org-123456","meta":{"profile":["http://hl7.org/fhir/us/qicore/StructureDefinition/qicore-organization"]},"identifier":[{"use":"temp","system":"urn:oid:2.16.840.1.113883.4.4","value":"21-3259825"}],"active":true,"type":[{"coding":[{"system":"http://terminology.hl7.org/CodeSystem/organization-type","code":"pay","display":"Payer"}]}],"name":"Blue Cross Blue Shield of Texas","telecom":[{"system":"phone","value":"(+1) 972-766-6900"}],"address":[{"use":"billing","type":"postal","line":["P.O. Box 660044"],"city":"Dallas","state":"TX","postalCode":"75266-0044","country":"USA"}]},"request":{"method":"PUT","url":"Organization/Org-123456"}},{"fullUrl":"https://madie.cms.gov/Practitioner/practitioner-123456","resource":{"resourceType":"Practitioner","id":"practitioner-123456","identifier":[{"system":"http://hl7.org/fhir/sid/us-npi","value":"123456"}],"name":[{"family":"Evil","prefix":["Dr"]}]},"request":{"method":"PUT","url":"Practitioner/practitioner-123456"}},{"fullUrl":"https://madie.cms.gov/MeasureReport/bc407753-0fe4-492c-a13f-55f2843f59af","resource":{"resourceType":"MeasureReport","id":"bc407753-0fe4-492c-a13f-55f2843f59af","meta":{"profile":["http://hl7.org/fhir/us/cqfmeasures/StructureDefinition/test-case-cqfm"]},"contained":[{"resourceType":"Parameters","id":"eb353249-141b-4a7a-bbea-44dd7c637667-parameters","parameter":[{"name":"subject","valueString":"95a54d01-197e-48ef-bb48-d3d398aecbe8"}]}],"extension":[{"url":"http://hl7.org/fhir/us/cqfmeasures/StructureDefinition/cqfm-inputParameters","valueReference":{"reference":"#eb353249-141b-4a7a-bbea-44dd7c637667-parameters"}},{"url":"http://hl7.org/fhir/us/cqfmeasures/StructureDefinition/cqfm-testCaseDescription","valueMarkdown":"meets IPP, meets Denominator,  Injectable Factor Xa Inhibitor adm not done PatRfsl on the day of anesthesia\n"}],"modifierExtension":[{"url":"http://hl7.org/fhir/us/cqfmeasures/StructureDefinition/cqfm-isTestCase","valueBoolean":true}],"status":"complete","type":"individual","measure":"https://madie.cms.gov/Measure/IntensiveCareUnitVenousThromboembolismProphylaxisFHIR","period":{"start":"2025-01-01","end":"2025-12-31"},"group":[{"population":[{"code":{"coding":[{"system":"http://terminology.hl7.org/CodeSystem/measure-population","code":"initial-population","display":"Initial Population"}]},"count":1},{"code":{"coding":[{"system":"http://terminology.hl7.org/CodeSystem/measure-population","code":"denominator","display":"Denominator"}]},"count":1},{"code":{"coding":[{"system":"http://terminology.hl7.org/CodeSystem/measure-population","code":"denominator-exclusion","display":"Denominator Exclusion"}]},"count":0},{"code":{"coding":[{"system":"http://terminology.hl7.org/CodeSystem/measure-population","code":"numerator","display":"Numerator"}]},"count":1},{"code":{"coding":[{"system":"http://terminology.hl7.org/CodeSystem/measure-population","code":"denominator-exception","display":"Denominator Exception"}]},"count":0}]}],"evaluatedResource":[{"reference":"Patient/95a54d01-197e-48ef-bb48-d3d398aecbe8"},{"reference":"Encounter/5ca62963b8484628b8de1ef9"},{"reference":"Coverage/5fa041491c76ba66d9959175"},{"reference":"MedicationAdministration/5ca62963b8484628b8de1efa"},{"reference":"Procedure/5ca62963b8484628b8de1efb"},{"reference":"Location/intensive-care-unit-2312"},{"reference":"Organization/Org-123456"},{"reference":"Practitioner/practitioner-123456"}]},"request":{"method":"PUT","url":"MeasureReport/bc407753-0fe4-492c-a13f-55f2843f59af"}}]}