{"resourceType":"Bundle","id":"tests-efad4991-4382-4ceb-8bc4-32e8ac088e47-bundle","type":"transaction","entry":[{"fullUrl":"https://madie.cms.gov/Patient/efad4991-4382-4ceb-8bc4-32e8ac088e47","resource":{"resourceType":"Patient","id":"efad4991-4382-4ceb-8bc4-32e8ac088e47","meta":{"profile":["http://hl7.org/fhir/us/qicore/StructureDefinition/qicore-patient"]},"text":{"status":"generated","div":"<div xmlns=\"http://www.w3.org/1999/xhtml\"><div class=\"hapiHeaderText\">FactorXaConcurrentEndAnesConcurrentICU <b>NUMERPASS </b></div><table class=\"hapiPropertyTable\"><tbody><tr><td>Identifier</td><td>932bbfe395f764f868f766d1afbf2cb7</td></tr><tr><td>Date of birth</td><td><span>03 March 1974</span></td></tr></tbody></table></div>"},"extension":[{"url":"http://hl7.org/fhir/us/core/StructureDefinition/us-core-race","extension":[{"url":"ombCategory","valueCoding":{"system":"urn:oid:2.16.840.1.113883.6.238","code":"1002-5","display":"American Indian or Alaska Native","userSelected":true}},{"url":"text","valueString":"American Indian or Alaska Native"}]},{"url":"http://hl7.org/fhir/us/core/StructureDefinition/us-core-ethnicity","extension":[{"url":"ombCategory","valueCoding":{"system":"urn:oid:2.16.840.1.113883.6.238","code":"2135-2","display":"Hispanic or Latino","userSelected":true}},{"url":"text","valueString":"Hispanic or Latino"}]}],"identifier":[{"type":{"coding":[{"system":"http://terminology.hl7.org/CodeSystem/v2-0203","code":"MR"}]},"system":"https://bonnie-fhir.healthit.gov/","value":"612e6f4202c62a011f2f130c"}],"active":true,"name":[{"use":"usual","family":"NUMERPass","given":["FactorXaConcurrentEndAnesConcurrentICU"]}],"gender":"female","birthDate":"1974-03-03"},"request":{"method":"PUT","url":"Patient/efad4991-4382-4ceb-8bc4-32e8ac088e47"}},{"fullUrl":"https://madie.cms.gov/Encounter/5ce8096fb848467c29eaf193","resource":{"resourceType":"Encounter","id":"e1467484-ee9d-458f-a20f-544a9fb1498b","meta":{"profile":["http://hl7.org/fhir/us/qicore/StructureDefinition/qicore-encounter"]},"status":"finished","class":{"system":"http://terminology.hl7.org/CodeSystem/v3-ActCode","code":"IMP","display":"inpatient encounter"},"type":[{"coding":[{"system":"http://snomed.info/sct","code":"8715000"}]}],"subject":{"reference":"Patient/efad4991-4382-4ceb-8bc4-32e8ac088e47"},"period":{"start":"2025-12-05T08:00:00+00:00","end":"2025-12-30T08:15:00+00:00"},"length":{"value":25.0,"unit":"days"},"diagnosis":[{"condition":{"reference":"Condition/obstetrics-24ef"},"rank":1}],"location":[{"location":{"reference":"Location/intensive-care-unit-0f9d"},"period":{"start":"2025-12-05T08:00:00+00:00","end":"2025-12-12T08:15:00+00:00"}}]},"request":{"method":"PUT","url":"Encounter/e1467484-ee9d-458f-a20f-544a9fb1498b"}},{"fullUrl":"https://madie.cms.gov/Coverage/5fa041021c76ba66d995909c","resource":{"resourceType":"Coverage","id":"60503aa3-c367-407c-8fb0-00a0c42be408","status":"active","beneficiary":{"reference":"Patient/efad4991-4382-4ceb-8bc4-32e8ac088e47"},"period":{"start":"1974-03-03T08:00:00+00:00"},"payor":[{"reference":"Organization/9e9b3f13-a353-4173-b29b-947d6f1f2031"}]},"request":{"method":"PUT","url":"Coverage/60503aa3-c367-407c-8fb0-00a0c42be408"}},{"fullUrl":"https://madie.cms.gov/Condition/obstetrics-24ef","resource":{"resourceType":"Condition","id":"d3c47fb0-0fdf-4be0-a322-673dedc61bb7","meta":{"profile":["http://hl7.org/fhir/us/qicore/StructureDefinition/qicore-condition"]},"category":[{"coding":[{"system":"http://terminology.hl7.org/CodeSystem/condition-category","code":"problem-list-item","display":"Problem list Item"}]}],"code":{"coding":[{"system":"http://snomed.info/sct","code":"120041000119109","display":"Atrial fibrillation with rapid ventricular response (disorder)","userSelected":true}]},"subject":{"reference":"Patient/efad4991-4382-4ceb-8bc4-32e8ac088e47"},"onsetPeriod":{"start":"2025-12-09T08:00:00.000+00:00"}},"request":{"method":"PUT","url":"Condition/d3c47fb0-0fdf-4be0-a322-673dedc61bb7"}},{"fullUrl":"https://madie.cms.gov/MedicationAdministration/5ce8096fb848467c29eaf194","resource":{"resourceType":"MedicationAdministration","id":"f7a91db1-8b92-462a-9302-f9f668bc4067","meta":{"profile":["http://hl7.org/fhir/us/qicore/StructureDefinition/qicore-medicationadministration"]},"status":"completed","medicationCodeableConcept":{"coding":[{"system":"http://www.nlm.nih.gov/research/umls/rxnorm","code":"1364435","display":"apixaban 2.5 MG Oral Tablet"}]},"subject":{"reference":"Patient/efad4991-4382-4ceb-8bc4-32e8ac088e47"},"effectivePeriod":{"start":"2025-12-05T11:00:00+00:00"}},"request":{"method":"PUT","url":"MedicationAdministration/f7a91db1-8b92-462a-9302-f9f668bc4067"}},{"fullUrl":"https://madie.cms.gov/Procedure/5ce8096fb848467c29eaf195","resource":{"resourceType":"Procedure","id":"bc57e576-3d0e-43d1-886e-d0a847f28983","meta":{"profile":["http://hl7.org/fhir/us/qicore/StructureDefinition/qicore-procedure"]},"extension":[{"url":"http://hl7.org/fhir/us/qicore/StructureDefinition/qicore-recorded","valueDateTime":"2012-12-04T09:35:00-04:00"}],"status":"completed","code":{"coding":[{"system":"http://snomed.info/sct","code":"18946005"}]},"subject":{"reference":"Patient/efad4991-4382-4ceb-8bc4-32e8ac088e47"},"performedPeriod":{"start":"2025-12-05T10:00:00+00:00","end":"2025-12-05T11:00:00+00:00"}},"request":{"method":"PUT","url":"Procedure/bc57e576-3d0e-43d1-886e-d0a847f28983"}},{"fullUrl":"https://madie.cms.gov/Location/intensive-care-unit-0f9d","resource":{"resourceType":"Location","id":"ba8626d5-eb38-4743-a232-93d891038870","meta":{"profile":["http://hl7.org/fhir/us/qicore/StructureDefinition/qicore-location"]},"identifier":[{"use":"usual","system":"http://exampleoflocation.com","value":"B1-S.F2"}],"name":"Medical Surgical East, first floor","type":[{"coding":[{"system":"https://www.cdc.gov/nhsn/cdaportal/terminology/codesystem/hsloc.html","code":"1025-6","display":"Trauma Critical Care","userSelected":true}]}]},"request":{"method":"PUT","url":"Location/ba8626d5-eb38-4743-a232-93d891038870"}},{"fullUrl":"https://madie.cms.gov/Organization/123456","resource":{"resourceType":"Organization","id":"9e9b3f13-a353-4173-b29b-947d6f1f2031","meta":{"profile":["http://hl7.org/fhir/us/qicore/StructureDefinition/qicore-organization"]},"identifier":[{"use":"temp","system":"urn:oid:2.16.840.1.113883.4.4","value":"21-3259825"}],"active":true,"type":[{"coding":[{"system":"http://terminology.hl7.org/CodeSystem/organization-type","code":"pay","display":"Payer"}]}],"name":"Blue Cross Blue Shield of Texas","telecom":[{"system":"phone","value":"(+1) 972-766-6900"}],"address":[{"use":"billing","type":"postal","line":["P.O. Box 660044"],"city":"Dallas","state":"TX","postalCode":"75266-0044","country":"USA"}]},"request":{"method":"PUT","url":"Organization/9e9b3f13-a353-4173-b29b-947d6f1f2031"}},{"fullUrl":"https://madie.cms.gov/Practitioner/practitioner-123456","resource":{"resourceType":"Practitioner","id":"33ddaeb1-1676-4780-ad32-021f383167c7","identifier":[{"system":"http://hl7.org/fhir/sid/us-npi","value":"123456"}],"name":[{"family":"Evil","prefix":["Dr"]}]},"request":{"method":"PUT","url":"Practitioner/33ddaeb1-1676-4780-ad32-021f383167c7"}},{"fullUrl":"https://madie.cms.gov/MeasureReport/1e28f181-d735-4432-bc77-cab55589872b","resource":{"resourceType":"MeasureReport","id":"1e28f181-d735-4432-bc77-cab55589872b","meta":{"profile":["http://hl7.org/fhir/us/cqfmeasures/StructureDefinition/test-case-cqfm"]},"contained":[{"resourceType":"Parameters","id":"1006610f-1504-45f6-b7d2-c56ca59a5118-parameters","parameter":[{"name":"subject","valueString":"efad4991-4382-4ceb-8bc4-32e8ac088e47"}]}],"extension":[{"url":"http://hl7.org/fhir/us/cqfmeasures/StructureDefinition/cqfm-inputParameters","valueReference":{"reference":"#1006610f-1504-45f6-b7d2-c56ca59a5118-parameters"}},{"url":"http://hl7.org/fhir/us/cqfmeasures/StructureDefinition/cqfm-testCaseDescription","valueMarkdown":"factor Xa administered concurrent with end of neuraxial anesthesia concurrent with ICU transfer\n"}],"modifierExtension":[{"url":"http://hl7.org/fhir/us/cqfmeasures/StructureDefinition/cqfm-isTestCase","valueBoolean":true}],"status":"complete","type":"individual","measure":"https://madie.cms.gov/Measure/IntensiveCareUnitVenousThromboembolismProphylaxisFHIR","period":{"start":"2025-01-01","end":"2025-12-31"},"group":[{"population":[{"code":{"coding":[{"system":"http://terminology.hl7.org/CodeSystem/measure-population","code":"initial-population","display":"Initial Population"}]},"count":1},{"code":{"coding":[{"system":"http://terminology.hl7.org/CodeSystem/measure-population","code":"denominator","display":"Denominator"}]},"count":1},{"code":{"coding":[{"system":"http://terminology.hl7.org/CodeSystem/measure-population","code":"denominator-exclusion","display":"Denominator Exclusion"}]},"count":0},{"code":{"coding":[{"system":"http://terminology.hl7.org/CodeSystem/measure-population","code":"numerator","display":"Numerator"}]},"count":1},{"code":{"coding":[{"system":"http://terminology.hl7.org/CodeSystem/measure-population","code":"denominator-exception","display":"Denominator Exception"}]},"count":0}]}]},"request":{"method":"PUT","url":"MeasureReport/1e28f181-d735-4432-bc77-cab55589872b"}}]}