{"resourceType":"Bundle","id":"tests-9cd5f0f5-5d45-4ba2-921c-37bd6e7822dd-bundle","type":"transaction","entry":[{"fullUrl":"https://madie.cms.gov/Patient/9cd5f0f5-5d45-4ba2-921c-37bd6e7822dd","resource":{"resourceType":"Patient","id":"9cd5f0f5-5d45-4ba2-921c-37bd6e7822dd","meta":{"profile":["http://hl7.org/fhir/us/qicore/StructureDefinition/qicore-patient"]},"text":{"status":"generated","div":"<div xmlns=\"http://www.w3.org/1999/xhtml\"><div class=\"hapiHeaderText\">PtRefMOWarfarinOnAnesRlvntDT <b>NUMERPASS </b></div><table class=\"hapiPropertyTable\"><tbody><tr><td>Identifier</td><td>0605317a287832394eb791622c2564f2</td></tr><tr><td>Date of birth</td><td><span>03 March 1974</span></td></tr></tbody></table></div>"},"extension":[{"url":"http://hl7.org/fhir/us/core/StructureDefinition/us-core-race","extension":[{"url":"ombCategory","valueCoding":{"system":"urn:oid:2.16.840.1.113883.6.238","code":"1002-5","display":"American Indian or Alaska Native","userSelected":true}},{"url":"text","valueString":"American Indian or Alaska Native"}]},{"url":"http://hl7.org/fhir/us/core/StructureDefinition/us-core-ethnicity","extension":[{"url":"ombCategory","valueCoding":{"system":"urn:oid:2.16.840.1.113883.6.238","code":"2135-2","display":"Hispanic or Latino","userSelected":true}},{"url":"text","valueString":"Hispanic or Latino"}]}],"identifier":[{"type":{"coding":[{"system":"http://terminology.hl7.org/CodeSystem/v2-0203","code":"MR"}]},"system":"https://bonnie-fhir.healthit.gov/","value":"612e6ea602c62a011f2ef2b4"}],"active":true,"name":[{"use":"usual","family":"NUMERPass","given":["PtRefMOWarfarinOnAnesRlvntDT"]}],"gender":"female","birthDate":"1974-03-03"},"request":{"method":"PUT","url":"Patient/9cd5f0f5-5d45-4ba2-921c-37bd6e7822dd"}},{"fullUrl":"https://madie.cms.gov/Encounter/5ce8096db848467c29eaf0a2","resource":{"resourceType":"Encounter","id":"5ce8096db848467c29eaf0a2","meta":{"profile":["http://hl7.org/fhir/us/qicore/StructureDefinition/qicore-encounter"]},"status":"finished","class":{"system":"http://terminology.hl7.org/CodeSystem/v3-ActCode","code":"IMP","display":"inpatient encounter"},"type":[{"coding":[{"system":"http://snomed.info/sct","code":"8715000"}]}],"subject":{"reference":"Patient/9cd5f0f5-5d45-4ba2-921c-37bd6e7822dd"},"period":{"start":"2025-12-04T08:00:00+00:00","end":"2025-12-30T08:15:00+00:00"},"length":{"value":26.0,"unit":"days"},"location":[{"location":{"reference":"Location/intensive-care-unit-558d"},"period":{"start":"2025-12-06T08:00:00.000+00:00","end":"2025-12-08T08:15:00.000+00:00"}}]},"request":{"method":"PUT","url":"Encounter/5ce8096db848467c29eaf0a2"}},{"fullUrl":"https://madie.cms.gov/Coverage/5fa041031c76ba66d99590ae","resource":{"resourceType":"Coverage","id":"5fa041031c76ba66d99590ae","status":"active","beneficiary":{"reference":"Patient/9cd5f0f5-5d45-4ba2-921c-37bd6e7822dd"},"period":{"start":"1974-03-03T08:00:00+00:00"},"payor":[{"reference":"Organization/Org-123456"}]},"request":{"method":"PUT","url":"Coverage/5fa041031c76ba66d99590ae"}},{"fullUrl":"https://madie.cms.gov/MedicationRequest/5ce8096db848467c29eaf0a3","resource":{"resourceType":"MedicationRequest","id":"5ce8096db848467c29eaf0a3","meta":{"profile":["http://hl7.org/fhir/us/qicore/StructureDefinition/qicore-mednotrequested"]},"status":"completed","intent":"order","category":[{"coding":[{"system":"http://terminology.hl7.org/CodeSystem/medicationrequest-category","code":"community"}]}],"doNotPerform":true,"medicationCodeableConcept":{"coding":[{"system":"http://www.nlm.nih.gov/research/umls/rxnorm","code":"855288"}]},"subject":{"reference":"Patient/9cd5f0f5-5d45-4ba2-921c-37bd6e7822dd"},"authoredOn":"2025-12-07T19:00:00.000+00:00","requester":{"reference":"Practitioner/123456"},"reasonCode":[{"coding":[{"system":"http://snomed.info/sct","code":"105480006","display":"Refusal of treatment by patient (situation)","userSelected":true}]}]},"request":{"method":"PUT","url":"MedicationRequest/5ce8096db848467c29eaf0a3"}},{"fullUrl":"https://madie.cms.gov/Procedure/5ce8096db848467c29eaf0a4","resource":{"resourceType":"Procedure","id":"5ce8096db848467c29eaf0a4","meta":{"profile":["http://hl7.org/fhir/us/qicore/StructureDefinition/qicore-procedure"]},"extension":[{"url":"http://hl7.org/fhir/us/qicore/StructureDefinition/qicore-recorded","valueDateTime":"2012-12-04T09:35:00-04:00"}],"status":"completed","code":{"coding":[{"system":"http://snomed.info/sct","code":"18946005"}]},"subject":{"reference":"Patient/9cd5f0f5-5d45-4ba2-921c-37bd6e7822dd"},"performedDateTime":"2025-12-07T19:00:00.000+00:00"},"request":{"method":"PUT","url":"Procedure/5ce8096db848467c29eaf0a4"}},{"fullUrl":"https://madie.cms.gov/Location/intensive-care-unit-558d","resource":{"resourceType":"Location","id":"intensive-care-unit-558d","meta":{"profile":["http://hl7.org/fhir/us/qicore/StructureDefinition/qicore-location"]},"identifier":[{"use":"usual","system":"http://exampleoflocation.com","value":"B1-S.F2"}],"name":"Medical Surgical East, first floor","type":[{"coding":[{"system":"https://www.cdc.gov/nhsn/cdaportal/terminology/codesystem/hsloc.html","code":"1025-6","display":"Trauma Critical Care","userSelected":true}]}]},"request":{"method":"PUT","url":"Location/intensive-care-unit-558d"}},{"fullUrl":"https://madie.cms.gov/Organization/123456","resource":{"resourceType":"Organization","id":"Org-123456","meta":{"profile":["http://hl7.org/fhir/us/qicore/StructureDefinition/qicore-organization"]},"identifier":[{"use":"temp","system":"urn:oid:2.16.840.1.113883.4.4","value":"21-3259825"}],"active":true,"type":[{"coding":[{"system":"http://terminology.hl7.org/CodeSystem/organization-type","code":"pay","display":"Payer"}]}],"name":"Blue Cross Blue Shield of Texas","telecom":[{"system":"phone","value":"(+1) 972-766-6900"}],"address":[{"use":"billing","type":"postal","line":["P.O. Box 660044"],"city":"Dallas","state":"TX","postalCode":"75266-0044","country":"USA"}]},"request":{"method":"PUT","url":"Organization/Org-123456"}},{"fullUrl":"https://madie.cms.gov/Practitioner/practitioner-123456","resource":{"resourceType":"Practitioner","id":"practitioner-123456","identifier":[{"system":"http://hl7.org/fhir/sid/us-npi","value":"123456"}],"name":[{"family":"Evil","prefix":["Dr"]}]},"request":{"method":"PUT","url":"Practitioner/practitioner-123456"}},{"fullUrl":"https://madie.cms.gov/MeasureReport/6be65ee5-0a60-4b03-90e7-b96293b26617","resource":{"resourceType":"MeasureReport","id":"6be65ee5-0a60-4b03-90e7-b96293b26617","meta":{"profile":["http://hl7.org/fhir/us/cqfmeasures/StructureDefinition/test-case-cqfm"]},"contained":[{"resourceType":"Parameters","id":"507f8e5b-3c7a-4418-816a-0fa6f57e0579-parameters","parameter":[{"name":"subject","valueString":"9cd5f0f5-5d45-4ba2-921c-37bd6e7822dd"}]}],"extension":[{"url":"http://hl7.org/fhir/us/cqfmeasures/StructureDefinition/cqfm-inputParameters","valueReference":{"reference":"#507f8e5b-3c7a-4418-816a-0fa6f57e0579-parameters"}},{"url":"http://hl7.org/fhir/us/cqfmeasures/StructureDefinition/cqfm-testCaseDescription","valueMarkdown":"warfarin not done due to patient refusal concurrent with neuraxial anesthesia relevant DT\n"}],"modifierExtension":[{"url":"http://hl7.org/fhir/us/cqfmeasures/StructureDefinition/cqfm-isTestCase","valueBoolean":true}],"status":"complete","type":"individual","measure":"https://madie.cms.gov/Measure/IntensiveCareUnitVenousThromboembolismProphylaxisFHIR","period":{"start":"2025-01-01","end":"2025-12-31"},"group":[{"population":[{"code":{"coding":[{"system":"http://terminology.hl7.org/CodeSystem/measure-population","code":"initial-population","display":"Initial Population"}]},"count":1},{"code":{"coding":[{"system":"http://terminology.hl7.org/CodeSystem/measure-population","code":"denominator","display":"Denominator"}]},"count":1},{"code":{"coding":[{"system":"http://terminology.hl7.org/CodeSystem/measure-population","code":"denominator-exclusion","display":"Denominator Exclusion"}]},"count":0},{"code":{"coding":[{"system":"http://terminology.hl7.org/CodeSystem/measure-population","code":"numerator","display":"Numerator"}]},"count":1},{"code":{"coding":[{"system":"http://terminology.hl7.org/CodeSystem/measure-population","code":"denominator-exception","display":"Denominator Exception"}]},"count":0}]}],"evaluatedResource":[{"reference":"Patient/9cd5f0f5-5d45-4ba2-921c-37bd6e7822dd"},{"reference":"Encounter/5ce8096db848467c29eaf0a2"},{"reference":"Coverage/5fa041031c76ba66d99590ae"},{"reference":"MedicationRequest/5ce8096db848467c29eaf0a3"},{"reference":"Procedure/5ce8096db848467c29eaf0a4"},{"reference":"Location/intensive-care-unit-558d"},{"reference":"Organization/Org-123456"},{"reference":"Practitioner/practitioner-123456"}]},"request":{"method":"PUT","url":"MeasureReport/6be65ee5-0a60-4b03-90e7-b96293b26617"}}]}