{"resourceType":"Bundle","id":"tests-4b2aa517-ae2b-4419-9c13-4294295eef9a-bundle","type":"transaction","entry":[{"fullUrl":"https://madie.cms.gov/Patient/4b2aa517-ae2b-4419-9c13-4294295eef9a","resource":{"resourceType":"Patient","id":"4b2aa517-ae2b-4419-9c13-4294295eef9a","meta":{"profile":["http://hl7.org/fhir/us/qicore/StructureDefinition/qicore-patient"]},"text":{"status":"generated","div":"<div xmlns=\"http://www.w3.org/1999/xhtml\"><div class=\"hapiHeaderText\">FactorXaDuring2ndICU <b>DENOMPASS </b></div><table class=\"hapiPropertyTable\"><tbody><tr><td>Identifier</td><td>6d76be9baa47bc8df50fa14784b8bb58</td></tr><tr><td>Date of birth</td><td><span>03 March 1974</span></td></tr></tbody></table></div>"},"extension":[{"url":"http://hl7.org/fhir/us/core/StructureDefinition/us-core-race","extension":[{"url":"ombCategory","valueCoding":{"system":"urn:oid:2.16.840.1.113883.6.238","code":"1002-5","display":"American Indian or Alaska Native","userSelected":true}},{"url":"text","valueString":"American Indian or Alaska Native"}]},{"url":"http://hl7.org/fhir/us/core/StructureDefinition/us-core-ethnicity","extension":[{"url":"ombCategory","valueCoding":{"system":"urn:oid:2.16.840.1.113883.6.238","code":"2135-2","display":"Hispanic or Latino","userSelected":true}},{"url":"text","valueString":"Hispanic or Latino"}]}],"identifier":[{"type":{"coding":[{"system":"http://terminology.hl7.org/CodeSystem/v2-0203","code":"MR"}]},"system":"https://bonnie-fhir.healthit.gov/","value":"612e6ead02c62a011f2ef3a8"}],"active":true,"name":[{"use":"usual","family":"DENOMPass","given":["FactorXaDuring2ndICU"]}],"gender":"female","birthDate":"1974-03-03"},"request":{"method":"PUT","url":"Patient/4b2aa517-ae2b-4419-9c13-4294295eef9a"}},{"fullUrl":"https://madie.cms.gov/Encounter/5ce8096db848467c29eaf08c","resource":{"resourceType":"Encounter","id":"5ce8096db848467c29eaf08c","meta":{"profile":["http://hl7.org/fhir/us/qicore/StructureDefinition/qicore-encounter"]},"status":"finished","class":{"system":"http://terminology.hl7.org/CodeSystem/v3-ActCode","code":"IMP","display":"inpatient encounter"},"type":[{"coding":[{"system":"http://snomed.info/sct","code":"8715000","display":"Hospital admission, elective (procedure)"}]}],"subject":{"reference":"Patient/4b2aa517-ae2b-4419-9c13-4294295eef9a"},"period":{"start":"2025-12-04T08:00:00+00:00","end":"2025-12-30T08:15:00+00:00"},"length":{"value":26.0,"unit":"days"},"location":[{"location":{"reference":"Location/intensive-care-unit-190a"},"period":{"start":"2025-12-06T08:00:00.000+00:00","end":"2025-12-08T08:15:00.000+00:00"}},{"location":{"reference":"Location/intensive-care-unit-190b"},"period":{"start":"2025-12-31T08:00:00.000+00:00","end":"2025-12-31T08:15:00.000+00:00"}}]},"request":{"method":"PUT","url":"Encounter/5ce8096db848467c29eaf08c"}},{"fullUrl":"https://madie.cms.gov/MedicationAdministration/5ce8096fb848467c29eaf16a","resource":{"resourceType":"MedicationAdministration","id":"5ce8096fb848467c29eaf16a","meta":{"profile":["http://hl7.org/fhir/us/qicore/StructureDefinition/qicore-medicationadministration"]},"status":"completed","medicationCodeableConcept":{"coding":[{"system":"http://www.nlm.nih.gov/research/umls/rxnorm","code":"861356"}]},"subject":{"reference":"Patient/4b2aa517-ae2b-4419-9c13-4294295eef9a"},"effectiveDateTime":"2025-12-31T08:05:00+00:00"},"request":{"method":"PUT","url":"MedicationAdministration/5ce8096fb848467c29eaf16a"}},{"fullUrl":"https://madie.cms.gov/Coverage/5fa040eb1c76ba66d9958ef2","resource":{"resourceType":"Coverage","id":"5fa040eb1c76ba66d9958ef2","status":"active","beneficiary":{"reference":"Patient/4b2aa517-ae2b-4419-9c13-4294295eef9a"},"period":{"start":"1974-03-03T08:00:00+00:00"},"payor":[{"reference":"Organization/Org-123456"}]},"request":{"method":"PUT","url":"Coverage/5fa040eb1c76ba66d9958ef2"}},{"fullUrl":"https://madie.cms.gov/Location/intensive-care-unit-190a","resource":{"resourceType":"Location","id":"intensive-care-unit-190a","meta":{"profile":["http://hl7.org/fhir/us/qicore/StructureDefinition/qicore-location"]},"identifier":[{"use":"usual","system":"http://exampleoflocation.com","value":"B1-S.F2"}],"name":"Medical Surgical East, first floor","type":[{"coding":[{"system":"https://www.cdc.gov/nhsn/cdaportal/terminology/codesystem/hsloc.html","version":"2020","code":"1025-6","display":"Trauma Critical Care","userSelected":true}]}]},"request":{"method":"PUT","url":"Location/intensive-care-unit-190a"}},{"fullUrl":"https://madie.cms.gov/Location/intensive-care-unit-190b","resource":{"resourceType":"Location","id":"intensive-care-unit-190b","meta":{"profile":["http://hl7.org/fhir/us/qicore/StructureDefinition/qicore-location"]},"identifier":[{"use":"usual","system":"http://exampleoflocation.com","value":"A1-S.F2"}],"name":"Medical Surgical West, first floor","type":[{"coding":[{"system":"https://www.cdc.gov/nhsn/cdaportal/terminology/codesystem/hsloc.html","version":"2020","code":"1025-6","display":"Trauma Critical Care","userSelected":true}]}]},"request":{"method":"PUT","url":"Location/intensive-care-unit-190b"}},{"fullUrl":"https://madie.cms.gov/Organization/123456","resource":{"resourceType":"Organization","id":"Org-123456","meta":{"profile":["http://hl7.org/fhir/us/qicore/StructureDefinition/qicore-organization"]},"identifier":[{"use":"temp","system":"urn:oid:2.16.840.1.113883.4.4","value":"21-3259825"}],"active":true,"type":[{"coding":[{"system":"http://terminology.hl7.org/CodeSystem/organization-type","code":"pay","display":"Payer"}]}],"name":"Blue Cross Blue Shield of Texas","telecom":[{"system":"phone","value":"(+1) 972-766-6900"}],"address":[{"use":"billing","type":"postal","line":["P.O. Box 660044"],"city":"Dallas","state":"TX","postalCode":"75266-0044","country":"USA"}]},"request":{"method":"PUT","url":"Organization/Org-123456"}},{"fullUrl":"https://madie.cms.gov/MeasureReport/e8254deb-41b2-48dc-893d-8cdeeb6da92b","resource":{"resourceType":"MeasureReport","id":"e8254deb-41b2-48dc-893d-8cdeeb6da92b","meta":{"profile":["http://hl7.org/fhir/us/cqfmeasures/StructureDefinition/test-case-cqfm"]},"contained":[{"resourceType":"Parameters","id":"90a08516-63df-4eed-ab69-1b12b06b43f2-parameters","parameter":[{"name":"subject","valueString":"4b2aa517-ae2b-4419-9c13-4294295eef9a"}]}],"extension":[{"url":"http://hl7.org/fhir/us/cqfmeasures/StructureDefinition/cqfm-inputParameters","valueReference":{"reference":"#90a08516-63df-4eed-ab69-1b12b06b43f2-parameters"}},{"url":"http://hl7.org/fhir/us/cqfmeasures/StructureDefinition/cqfm-testCaseDescription","valueMarkdown":"Patient gets VTE prophylaxis on the second ICU admission during the inpatient encounter.\n"}],"modifierExtension":[{"url":"http://hl7.org/fhir/us/cqfmeasures/StructureDefinition/cqfm-isTestCase","valueBoolean":true}],"status":"complete","type":"individual","measure":"https://madie.cms.gov/Measure/IntensiveCareUnitVenousThromboembolismProphylaxisFHIR","period":{"start":"2025-01-01","end":"2025-12-31"},"group":[{"population":[{"code":{"coding":[{"system":"http://terminology.hl7.org/CodeSystem/measure-population","code":"initial-population","display":"Initial Population"}]},"count":1},{"code":{"coding":[{"system":"http://terminology.hl7.org/CodeSystem/measure-population","code":"denominator","display":"Denominator"}]},"count":1},{"code":{"coding":[{"system":"http://terminology.hl7.org/CodeSystem/measure-population","code":"denominator-exclusion","display":"Denominator Exclusion"}]},"count":0},{"code":{"coding":[{"system":"http://terminology.hl7.org/CodeSystem/measure-population","code":"numerator","display":"Numerator"}]},"count":0},{"code":{"coding":[{"system":"http://terminology.hl7.org/CodeSystem/measure-population","code":"denominator-exception","display":"Denominator Exception"}]},"count":0}]}],"evaluatedResource":[{"reference":"Patient/4b2aa517-ae2b-4419-9c13-4294295eef9a"},{"reference":"Encounter/5ce8096db848467c29eaf08c"},{"reference":"MedicationAdministration/5ce8096fb848467c29eaf16a"},{"reference":"Coverage/5fa040eb1c76ba66d9958ef2"},{"reference":"Location/intensive-care-unit-190a"},{"reference":"Location/intensive-care-unit-190b"},{"reference":"Organization/Org-123456"}]},"request":{"method":"PUT","url":"MeasureReport/e8254deb-41b2-48dc-893d-8cdeeb6da92b"}}]}