{"resourceType":"Bundle","id":"tests-efad4991-4382-4ceb-8bc4-32e8ac088e47-bundle","type":"transaction","entry":[{"fullUrl":"https://madie.cms.gov/Patient/efad4991-4382-4ceb-8bc4-32e8ac088e47","resource":{"resourceType":"Patient","id":"efad4991-4382-4ceb-8bc4-32e8ac088e47","meta":{"profile":["http://hl7.org/fhir/us/qicore/StructureDefinition/qicore-patient"]},"text":{"status":"generated","div":"<div xmlns=\"http://www.w3.org/1999/xhtml\"><div class=\"hapiHeaderText\">FactorXaConcurrentEndAnesConcurrentICU <b>NUMERPASS </b></div><table class=\"hapiPropertyTable\"><tbody><tr><td>Identifier</td><td>932bbfe395f764f868f766d1afbf2cb7</td></tr><tr><td>Date of birth</td><td><span>03 March 1974</span></td></tr></tbody></table></div>"},"extension":[{"url":"http://hl7.org/fhir/us/core/StructureDefinition/us-core-race","extension":[{"url":"ombCategory","valueCoding":{"system":"urn:oid:2.16.840.1.113883.6.238","code":"1002-5","display":"American Indian or Alaska Native","userSelected":true}},{"url":"text","valueString":"American Indian or Alaska Native"}]},{"url":"http://hl7.org/fhir/us/core/StructureDefinition/us-core-ethnicity","extension":[{"url":"ombCategory","valueCoding":{"system":"urn:oid:2.16.840.1.113883.6.238","code":"2135-2","display":"Hispanic or Latino","userSelected":true}},{"url":"text","valueString":"Hispanic or Latino"}]}],"identifier":[{"type":{"coding":[{"system":"http://terminology.hl7.org/CodeSystem/v2-0203","code":"MR"}]},"system":"https://bonnie-fhir.healthit.gov/","value":"612e6f4202c62a011f2f130c"}],"active":true,"name":[{"use":"usual","family":"NUMERPass","given":["FactorXaConcurrentEndAnesConcurrentICU"]}],"gender":"female","birthDate":"1974-03-03"},"request":{"method":"PUT","url":"Patient/efad4991-4382-4ceb-8bc4-32e8ac088e47"}},{"fullUrl":"https://madie.cms.gov/Encounter/5ce8096fb848467c29eaf193","resource":{"resourceType":"Encounter","id":"5ce8096fb848467c29eaf193","meta":{"profile":["http://hl7.org/fhir/us/qicore/StructureDefinition/qicore-encounter"]},"status":"finished","class":{"system":"http://terminology.hl7.org/CodeSystem/v3-ActCode","code":"IMP","display":"inpatient encounter"},"type":[{"coding":[{"system":"http://snomed.info/sct","code":"8715000"}]}],"subject":{"reference":"Patient/efad4991-4382-4ceb-8bc4-32e8ac088e47"},"period":{"start":"2025-12-05T08:00:00+00:00","end":"2025-12-30T08:15:00+00:00"},"length":{"value":25.0,"unit":"days"},"diagnosis":[{"condition":{"reference":"Condition/obstetrics-24ef"},"rank":1}],"location":[{"location":{"reference":"Location/intensive-care-unit-0f9d"},"period":{"start":"2025-12-05T08:00:00+00:00","end":"2025-12-12T08:15:00+00:00"}}]},"request":{"method":"PUT","url":"Encounter/5ce8096fb848467c29eaf193"}},{"fullUrl":"https://madie.cms.gov/Coverage/5fa041021c76ba66d995909c","resource":{"resourceType":"Coverage","id":"5fa041021c76ba66d995909c","status":"active","beneficiary":{"reference":"Patient/efad4991-4382-4ceb-8bc4-32e8ac088e47"},"period":{"start":"1974-03-03T08:00:00+00:00"},"payor":[{"reference":"Organization/Org-123456"}]},"request":{"method":"PUT","url":"Coverage/5fa041021c76ba66d995909c"}},{"fullUrl":"https://madie.cms.gov/Condition/obstetrics-24ef","resource":{"resourceType":"Condition","id":"obstetrics-24ef","meta":{"profile":["http://hl7.org/fhir/us/qicore/StructureDefinition/qicore-condition"]},"category":[{"coding":[{"system":"http://terminology.hl7.org/CodeSystem/condition-category","code":"problem-list-item","display":"Problem list Item"}]}],"code":{"coding":[{"system":"http://snomed.info/sct","code":"120041000119109","display":"Atrial fibrillation with rapid ventricular response (disorder)","userSelected":true}]},"subject":{"reference":"Patient/efad4991-4382-4ceb-8bc4-32e8ac088e47"},"onsetPeriod":{"start":"2025-12-09T08:00:00.000+00:00"}},"request":{"method":"PUT","url":"Condition/obstetrics-24ef"}},{"fullUrl":"https://madie.cms.gov/MedicationAdministration/5ce8096fb848467c29eaf194","resource":{"resourceType":"MedicationAdministration","id":"5ce8096fb848467c29eaf194","meta":{"profile":["http://hl7.org/fhir/us/qicore/StructureDefinition/qicore-medicationadministration"]},"status":"completed","medicationCodeableConcept":{"coding":[{"system":"http://www.nlm.nih.gov/research/umls/rxnorm","code":"1364435","display":"apixaban 2.5 MG Oral Tablet"}]},"subject":{"reference":"Patient/efad4991-4382-4ceb-8bc4-32e8ac088e47"},"effectivePeriod":{"start":"2025-12-05T11:00:00+00:00"}},"request":{"method":"PUT","url":"MedicationAdministration/5ce8096fb848467c29eaf194"}},{"fullUrl":"https://madie.cms.gov/Procedure/5ce8096fb848467c29eaf195","resource":{"resourceType":"Procedure","id":"5ce8096fb848467c29eaf195","meta":{"profile":["http://hl7.org/fhir/us/qicore/StructureDefinition/qicore-procedure"]},"extension":[{"url":"http://hl7.org/fhir/us/qicore/StructureDefinition/qicore-recorded","valueDateTime":"2012-12-04T09:35:00-04:00"}],"status":"completed","code":{"coding":[{"system":"http://snomed.info/sct","code":"18946005"}]},"subject":{"reference":"Patient/efad4991-4382-4ceb-8bc4-32e8ac088e47"},"performedPeriod":{"start":"2025-12-05T10:00:00+00:00","end":"2025-12-05T11:00:00+00:00"}},"request":{"method":"PUT","url":"Procedure/5ce8096fb848467c29eaf195"}},{"fullUrl":"https://madie.cms.gov/Location/intensive-care-unit-0f9d","resource":{"resourceType":"Location","id":"intensive-care-unit-0f9d","meta":{"profile":["http://hl7.org/fhir/us/qicore/StructureDefinition/qicore-location"]},"identifier":[{"use":"usual","system":"http://exampleoflocation.com","value":"B1-S.F2"}],"name":"Medical Surgical East, first floor","type":[{"coding":[{"system":"https://www.cdc.gov/nhsn/cdaportal/terminology/codesystem/hsloc.html","code":"1025-6","display":"Trauma Critical Care","userSelected":true}]}]},"request":{"method":"PUT","url":"Location/intensive-care-unit-0f9d"}},{"fullUrl":"https://madie.cms.gov/Organization/123456","resource":{"resourceType":"Organization","id":"Org-123456","meta":{"profile":["http://hl7.org/fhir/us/qicore/StructureDefinition/qicore-organization"]},"identifier":[{"use":"temp","system":"urn:oid:2.16.840.1.113883.4.4","value":"21-3259825"}],"active":true,"type":[{"coding":[{"system":"http://terminology.hl7.org/CodeSystem/organization-type","code":"pay","display":"Payer"}]}],"name":"Blue Cross Blue Shield of Texas","telecom":[{"system":"phone","value":"(+1) 972-766-6900"}],"address":[{"use":"billing","type":"postal","line":["P.O. Box 660044"],"city":"Dallas","state":"TX","postalCode":"75266-0044","country":"USA"}]},"request":{"method":"PUT","url":"Organization/Org-123456"}},{"fullUrl":"https://madie.cms.gov/Practitioner/practitioner-123456","resource":{"resourceType":"Practitioner","id":"practitioner-123456","identifier":[{"system":"http://hl7.org/fhir/sid/us-npi","value":"123456"}],"name":[{"family":"Evil","prefix":["Dr"]}]},"request":{"method":"PUT","url":"Practitioner/practitioner-123456"}},{"fullUrl":"https://madie.cms.gov/MeasureReport/24f0897d-7c5f-421d-b819-04dfd506448f","resource":{"resourceType":"MeasureReport","id":"24f0897d-7c5f-421d-b819-04dfd506448f","meta":{"profile":["http://hl7.org/fhir/us/cqfmeasures/StructureDefinition/test-case-cqfm"]},"contained":[{"resourceType":"Parameters","id":"ffaf3a42-ac82-4b48-a4d1-3a87cbaa7e0a-parameters","parameter":[{"name":"subject","valueString":"efad4991-4382-4ceb-8bc4-32e8ac088e47"}]}],"extension":[{"url":"http://hl7.org/fhir/us/cqfmeasures/StructureDefinition/cqfm-inputParameters","valueReference":{"reference":"#ffaf3a42-ac82-4b48-a4d1-3a87cbaa7e0a-parameters"}},{"url":"http://hl7.org/fhir/us/cqfmeasures/StructureDefinition/cqfm-testCaseDescription","valueMarkdown":"factor Xa administered concurrent with end of neuraxial anesthesia concurrent with ICU transfer\n"}],"modifierExtension":[{"url":"http://hl7.org/fhir/us/cqfmeasures/StructureDefinition/cqfm-isTestCase","valueBoolean":true}],"status":"complete","type":"individual","measure":"https://madie.cms.gov/Measure/IntensiveCareUnitVenousThromboembolismProphylaxisFHIR","period":{"start":"2025-01-01","end":"2025-12-31"},"group":[{"population":[{"code":{"coding":[{"system":"http://terminology.hl7.org/CodeSystem/measure-population","code":"initial-population","display":"Initial Population"}]},"count":1},{"code":{"coding":[{"system":"http://terminology.hl7.org/CodeSystem/measure-population","code":"denominator","display":"Denominator"}]},"count":1},{"code":{"coding":[{"system":"http://terminology.hl7.org/CodeSystem/measure-population","code":"denominator-exclusion","display":"Denominator Exclusion"}]},"count":0},{"code":{"coding":[{"system":"http://terminology.hl7.org/CodeSystem/measure-population","code":"numerator","display":"Numerator"}]},"count":1},{"code":{"coding":[{"system":"http://terminology.hl7.org/CodeSystem/measure-population","code":"denominator-exception","display":"Denominator Exception"}]},"count":0}]}],"evaluatedResource":[{"reference":"Patient/efad4991-4382-4ceb-8bc4-32e8ac088e47"},{"reference":"Encounter/5ce8096fb848467c29eaf193"},{"reference":"Coverage/5fa041021c76ba66d995909c"},{"reference":"Condition/obstetrics-24ef"},{"reference":"MedicationAdministration/5ce8096fb848467c29eaf194"},{"reference":"Procedure/5ce8096fb848467c29eaf195"},{"reference":"Location/intensive-care-unit-0f9d"},{"reference":"Organization/Org-123456"},{"reference":"Practitioner/practitioner-123456"}]},"request":{"method":"PUT","url":"MeasureReport/24f0897d-7c5f-421d-b819-04dfd506448f"}}]}