{"resourceType":"Bundle","id":"tests-99fbf673-e18e-43db-bccf-6edc67fcb13f-bundle","type":"transaction","entry":[{"fullUrl":"https://madie.cms.gov/Patient/99fbf673-e18e-43db-bccf-6edc67fcb13f","resource":{"resourceType":"Patient","id":"99fbf673-e18e-43db-bccf-6edc67fcb13f","meta":{"profile":["http://hl7.org/fhir/us/qicore/StructureDefinition/qicore-patient"]},"text":{"status":"generated","div":"<div xmlns=\"http://www.w3.org/1999/xhtml\"><div class=\"hapiHeaderText\">MAWarfarinDayOfICUMedAdmBFICUStart <b>NUMERPASS </b></div><table class=\"hapiPropertyTable\"><tbody><tr><td>Identifier</td><td>4a57e8e4a87323501c4bde2e71e8e471</td></tr><tr><td>Date of birth</td><td><span>03 March 1974</span></td></tr></tbody></table></div>"},"extension":[{"url":"http://hl7.org/fhir/us/core/StructureDefinition/us-core-race","extension":[{"url":"ombCategory","valueCoding":{"system":"urn:oid:2.16.840.1.113883.6.238","code":"1002-5","display":"American Indian or Alaska Native","userSelected":true}},{"url":"text","valueString":"American Indian or Alaska Native"}]},{"url":"http://hl7.org/fhir/us/core/StructureDefinition/us-core-ethnicity","extension":[{"url":"ombCategory","valueCoding":{"system":"urn:oid:2.16.840.1.113883.6.238","code":"2135-2","display":"Hispanic or Latino","userSelected":true}},{"url":"text","valueString":"Hispanic or Latino"}]}],"identifier":[{"type":{"coding":[{"system":"http://terminology.hl7.org/CodeSystem/v2-0203","code":"MR"}]},"system":"https://bonnie-fhir.healthit.gov/","value":"612e6eb702c62a011f2ef567"}],"active":true,"name":[{"use":"usual","family":"NUMERPass","given":["MAWarfarinDayOfICUMedAdmBFICUStart"]}],"gender":"female","birthDate":"1974-03-03"},"request":{"method":"PUT","url":"Patient/99fbf673-e18e-43db-bccf-6edc67fcb13f"}},{"fullUrl":"https://madie.cms.gov/Encounter/5ce8096db848467c29eaf0b9","resource":{"resourceType":"Encounter","id":"7b2e595d-b9fa-4370-92c3-695e123ff99d","meta":{"profile":["http://hl7.org/fhir/us/qicore/StructureDefinition/qicore-encounter"]},"status":"finished","class":{"system":"http://terminology.hl7.org/CodeSystem/v3-ActCode","code":"IMP","display":"inpatient encounter"},"type":[{"coding":[{"system":"http://snomed.info/sct","code":"8715000"}]}],"subject":{"reference":"Patient/99fbf673-e18e-43db-bccf-6edc67fcb13f"},"period":{"start":"2025-12-01T06:00:00+00:00","end":"2025-12-31T23:59:00+00:00"},"length":{"value":30.0,"unit":"days"},"location":[{"location":{"reference":"Location/Location-1"},"period":{"start":"2025-12-02T09:00:00.000+00:00","end":"2025-12-10T08:15:00.000+00:00"}}]},"request":{"method":"PUT","url":"Encounter/7b2e595d-b9fa-4370-92c3-695e123ff99d"}},{"fullUrl":"https://madie.cms.gov/Coverage/5fa040ed1c76ba66d9958f10","resource":{"resourceType":"Coverage","id":"a92d2c60-db0d-4886-b3a7-5eed757d54f6","status":"active","beneficiary":{"reference":"Patient/99fbf673-e18e-43db-bccf-6edc67fcb13f"},"period":{"start":"1974-03-03T08:00:00+00:00"},"payor":[{"reference":"Organization/26111c91-b0e2-476c-a20b-e3f39799f8f5"}]},"request":{"method":"PUT","url":"Coverage/a92d2c60-db0d-4886-b3a7-5eed757d54f6"}},{"fullUrl":"https://madie.cms.gov/MedicationAdministration/5ce8096db848467c29eaf0ba","resource":{"resourceType":"MedicationAdministration","id":"d4b39bce-92e3-4d61-a97f-1d622a05d2e5","meta":{"profile":["http://hl7.org/fhir/us/qicore/StructureDefinition/qicore-medicationadministration"]},"status":"completed","medicationCodeableConcept":{"coding":[{"system":"http://www.nlm.nih.gov/research/umls/rxnorm","code":"855288"}]},"subject":{"reference":"Patient/99fbf673-e18e-43db-bccf-6edc67fcb13f"},"effectivePeriod":{"start":"2025-12-02T06:59:00+00:00"}},"request":{"method":"PUT","url":"MedicationAdministration/d4b39bce-92e3-4d61-a97f-1d622a05d2e5"}},{"fullUrl":"https://madie.cms.gov/Location/Location-1","resource":{"resourceType":"Location","id":"1f4f88e4-3b01-4984-8236-d5de4d9dd457","meta":{"profile":["http://hl7.org/fhir/us/qicore/StructureDefinition/qicore-location"]},"identifier":[{"use":"usual","system":"http://exampleoflocation.com","value":"B1-S.F2"}],"name":"Medical Surgical East, first floor","type":[{"coding":[{"system":"https://www.cdc.gov/nhsn/cdaportal/terminology/codesystem/hsloc.html","code":"1025-6","display":"Trauma Critical Care","userSelected":true}]}]},"request":{"method":"PUT","url":"Location/1f4f88e4-3b01-4984-8236-d5de4d9dd457"}},{"fullUrl":"https://madie.cms.gov/Organization/123456","resource":{"resourceType":"Organization","id":"26111c91-b0e2-476c-a20b-e3f39799f8f5","meta":{"profile":["http://hl7.org/fhir/us/qicore/StructureDefinition/qicore-organization"]},"identifier":[{"use":"temp","system":"urn:oid:2.16.840.1.113883.4.4","value":"21-3259825"}],"active":true,"type":[{"coding":[{"system":"http://terminology.hl7.org/CodeSystem/organization-type","code":"pay","display":"Payer"}]}],"name":"Blue Cross Blue Shield of Texas","telecom":[{"system":"phone","value":"(+1) 972-766-6900"}],"address":[{"use":"billing","type":"postal","line":["P.O. Box 660044"],"city":"Dallas","state":"TX","postalCode":"75266-0044","country":"USA"}]},"request":{"method":"PUT","url":"Organization/26111c91-b0e2-476c-a20b-e3f39799f8f5"}},{"fullUrl":"https://madie.cms.gov/Practitioner/practitioner-123456","resource":{"resourceType":"Practitioner","id":"9b7d0fcb-bbaa-437c-b58e-54b21cebe754","identifier":[{"system":"http://hl7.org/fhir/sid/us-npi","value":"123456"}],"name":[{"family":"Evil","prefix":["Dr"]}]},"request":{"method":"PUT","url":"Practitioner/9b7d0fcb-bbaa-437c-b58e-54b21cebe754"}},{"fullUrl":"https://madie.cms.gov/MeasureReport/f56a2e13-261b-4f1d-a90d-1b723cf2a756","resource":{"resourceType":"MeasureReport","id":"f56a2e13-261b-4f1d-a90d-1b723cf2a756","meta":{"profile":["http://hl7.org/fhir/us/cqfmeasures/StructureDefinition/test-case-cqfm"]},"contained":[{"resourceType":"Parameters","id":"0407dbe1-9d73-4b36-ac9d-658155e1fd15-parameters","parameter":[{"name":"subject","valueString":"99fbf673-e18e-43db-bccf-6edc67fcb13f"}]}],"extension":[{"url":"http://hl7.org/fhir/us/cqfmeasures/StructureDefinition/cqfm-inputParameters","valueReference":{"reference":"#0407dbe1-9d73-4b36-ac9d-658155e1fd15-parameters"}},{"url":"http://hl7.org/fhir/us/cqfmeasures/StructureDefinition/cqfm-testCaseDescription","valueMarkdown":"Warfarin was given  before ICU Start time but on the same day of ICU adm date"}],"modifierExtension":[{"url":"http://hl7.org/fhir/us/cqfmeasures/StructureDefinition/cqfm-isTestCase","valueBoolean":true}],"status":"complete","type":"individual","measure":"https://madie.cms.gov/Measure/IntensiveCareUnitVenousThromboembolismProphylaxisFHIR","period":{"start":"2025-01-01","end":"2025-12-31"},"group":[{"population":[{"code":{"coding":[{"system":"http://terminology.hl7.org/CodeSystem/measure-population","code":"initial-population","display":"Initial Population"}]},"count":1},{"code":{"coding":[{"system":"http://terminology.hl7.org/CodeSystem/measure-population","code":"denominator","display":"Denominator"}]},"count":1},{"code":{"coding":[{"system":"http://terminology.hl7.org/CodeSystem/measure-population","code":"denominator-exclusion","display":"Denominator Exclusion"}]},"count":0},{"code":{"coding":[{"system":"http://terminology.hl7.org/CodeSystem/measure-population","code":"numerator","display":"Numerator"}]},"count":1},{"code":{"coding":[{"system":"http://terminology.hl7.org/CodeSystem/measure-population","code":"denominator-exception","display":"Denominator Exception"}]},"count":0}]}]},"request":{"method":"PUT","url":"MeasureReport/f56a2e13-261b-4f1d-a90d-1b723cf2a756"}}]}