{
  "resourceType": "Bundle",
  "id": "61152a3b98086b7a79cbd7b6",
  "type": "transaction",
  "entry": [ {
    "fullUrl": "https://madie.cms.gov/Patient/e360ffc2-5b98-425a-a2bd-b051ba5ec506",
    "resource": {
      "resourceType": "Patient",
      "id": "e360ffc2-5b98-425a-a2bd-b051ba5ec506",
      "meta": {
        "profile": [ "http://hl7.org/fhir/us/qicore/StructureDefinition/qicore-patient" ]
      },
      "extension": [ {
        "url": "http://hl7.org/fhir/us/core/StructureDefinition/us-core-race",
        "extension": [ {
          "url": "ombCategory",
          "valueCoding": {
            "system": "urn:oid:2.16.840.1.113883.6.238",
            "code": "1002-5",
            "display": "American Indian or Alaska Native",
            "userSelected": true
          }
        }, {
          "url": "text",
          "valueString": "American Indian or Alaska Native"
        } ]
      }, {
        "url": "http://hl7.org/fhir/us/core/StructureDefinition/us-core-ethnicity",
        "extension": [ {
          "url": "ombCategory",
          "valueCoding": {
            "system": "urn:oid:2.16.840.1.113883.6.238",
            "code": "2135-2",
            "display": "Hispanic or Latino",
            "userSelected": true
          }
        }, {
          "url": "text",
          "valueString": "Hispanic or Latino"
        } ]
      } ],
      "identifier": [ {
        "type": {
          "coding": [ {
            "system": "http://terminology.hl7.org/CodeSystem/v2-0203",
            "code": "MR"
          } ]
        },
        "system": "https://bonnie-fhir.healthit.gov/",
        "value": "61152a3b98086b7a79cbd7b6"
      } ],
      "active": true,
      "name": [ {
        "use": "usual",
        "family": "DENOMPass",
        "given": [ "Age17inEDAge18StartOfIPEncounter" ]
      } ],
      "gender": "male",
      "birthDate": "2007-07-11"
    },
    "request": {
      "method": "POST",
      "url": "Patient/e360ffc2-5b98-425a-a2bd-b051ba5ec506"
    }
  }, {
    "fullUrl": "https://madie.cms.gov/Encounter/5bfc28feb8484648d6d75286",
    "resource": {
      "resourceType": "Encounter",
      "id": "5bfc28feb8484648d6d75286",
      "meta": {
        "profile": [ "http://hl7.org/fhir/us/qicore/StructureDefinition/qicore-encounter" ]
      },
      "status": "finished",
      "class": {
        "system": "http://terminology.hl7.org/CodeSystem/v3-ActCode",
        "code": "IMP"
      },
      "type": [ {
        "coding": [ {
          "system": "http://snomed.info/sct",
          "code": "4525004"
        } ]
      } ],
      "subject": {
        "reference": "Patient/e360ffc2-5b98-425a-a2bd-b051ba5ec506"
      },
      "period": {
        "start": "2025-07-11T08:00:00.000+00:00",
        "end": "2025-07-12T08:00:00.000+00:00"
      }
    },
    "request": {
      "method": "POST",
      "url": "Encounter/5bfc28feb8484648d6d75286"
    }
  }, {
    "fullUrl": "https://madie.cms.gov/Encounter/5bfc28feb8484648d6d75287",
    "resource": {
      "resourceType": "Encounter",
      "id": "5bfc28feb8484648d6d75287",
      "meta": {
        "profile": [ "http://hl7.org/fhir/us/qicore/StructureDefinition/qicore-encounter" ]
      },
      "status": "finished",
      "class": {
        "system": "http://terminology.hl7.org/CodeSystem/v3-ActCode",
        "code": "IMP"
      },
      "type": [ {
        "coding": [ {
          "system": "http://snomed.info/sct",
          "code": "183452005"
        } ]
      } ],
      "subject": {
        "reference": "Patient/e360ffc2-5b98-425a-a2bd-b051ba5ec506"
      },
      "period": {
        "start": "2025-07-12T08:30:00+00:00",
        "end": "2025-07-13T21:00:00+00:00"
      }
    },
    "request": {
      "method": "POST",
      "url": "Encounter/5bfc28feb8484648d6d75287"
    }
  }, {
    "fullUrl": "https://madie.cms.gov/MedicationAdministration/60130b7778b8e50000642142",
    "resource": {
      "resourceType": "MedicationAdministration",
      "id": "60130b7778b8e50000642142",
      "meta": {
        "profile": [ "http://hl7.org/fhir/us/qicore/StructureDefinition/qicore-medicationadministration" ]
      },
      "status": "completed",
      "medicationCodeableConcept": {
        "coding": [ {
          "system": "http://www.nlm.nih.gov/research/umls/rxnorm",
          "code": "1361493",
          "display": "glimepiride 6 MG Oral Tablet",
          "userSelected": true
        } ]
      },
      "subject": {
        "reference": "Patient/e360ffc2-5b98-425a-a2bd-b051ba5ec506"
      },
      "effectivePeriod": {
        "start": "2025-07-11T08:00:00+00:00",
        "end": "2025-07-11T09:00:00+00:00"
      }
    },
    "request": {
      "method": "POST",
      "url": "MedicationAdministration/60130b7778b8e50000642142"
    }
  }, {
    "fullUrl": "https://madie.cms.gov/Coverage/1",
    "resource": {
      "resourceType": "Coverage",
      "id": "1",
      "meta": {
        "profile": [ "http://hl7.org/fhir/us/qicore/StructureDefinition/qicore-coverage" ]
      },
      "status": "active",
      "beneficiary": {
        "reference": "Patient/e360ffc2-5b98-425a-a2bd-b051ba5ec506"
      },
      "payor": [ {
        "reference": "Organization/123456"
      } ]
    },
    "request": {
      "method": "POST",
      "url": "Coverage/1"
    }
  }, {
    "fullUrl": "https://madie.cms.gov/Organization/123456",
    "resource": {
      "resourceType": "Organization",
      "id": "123456",
      "meta": {
        "profile": [ "http://hl7.org/fhir/us/qicore/StructureDefinition/qicore-organization" ]
      },
      "identifier": [ {
        "use": "temp",
        "system": "urn:oid:2.16.840.1.113883.4.4",
        "value": "21-3259825"
      } ],
      "active": true,
      "type": [ {
        "coding": [ {
          "system": "http://terminology.hl7.org/CodeSystem/organization-type",
          "code": "pay",
          "display": "Payer"
        } ]
      } ],
      "name": "Blue Cross Blue Shield of Texas",
      "telecom": [ {
        "system": "phone",
        "value": "(+1) 972-766-6900"
      } ],
      "address": [ {
        "use": "billing",
        "type": "postal",
        "line": [ "P.O. Box 660044" ],
        "city": "Dallas",
        "state": "TX",
        "postalCode": "75266-0044",
        "country": "USA"
      } ]
    },
    "request": {
      "method": "POST",
      "url": "Organization/123456"
    }
  }, {
    "fullUrl": "https://madie.cms.gov/Practitioner/practitioner-123456",
    "resource": {
      "resourceType": "Practitioner",
      "id": "practitioner-123456",
      "meta": {
        "profile": [ "http://hl7.org/fhir/us/qicore/StructureDefinition/qicore-practitioner" ]
      },
      "identifier": [ {
        "system": "http://hl7.org/fhir/sid/us-npi",
        "value": "123456"
      } ],
      "name": [ {
        "family": "Evil",
        "prefix": [ "Dr" ]
      } ]
    },
    "request": {
      "method": "POST",
      "url": "Practitioner/practitioner-123456"
    }
  }, {
    "fullUrl": "https://madie.cms.gov/MeasureReport/62722cfc-14c9-45f0-b173-f079502390e7",
    "resource": {
      "resourceType": "MeasureReport",
      "id": "62722cfc-14c9-45f0-b173-f079502390e7",
      "meta": {
        "profile": [ "http://hl7.org/fhir/us/cqfmeasures/StructureDefinition/test-case-cqfm" ]
      },
      "contained": [ {
        "resourceType": "Parameters",
        "id": "ff5e71d8-e8ce-4e41-a41b-162f5b1a4fdb-parameters",
        "parameter": [ {
          "name": "subject",
          "valueString": "e360ffc2-5b98-425a-a2bd-b051ba5ec506"
        } ]
      } ],
      "extension": [ {
        "url": "http://hl7.org/fhir/us/cqfmeasures/StructureDefinition/cqfm-inputParameters",
        "valueReference": {
          "reference": "#ff5e71d8-e8ce-4e41-a41b-162f5b1a4fdb-parameters"
        }
      }, {
        "url": "http://hl7.org/fhir/us/cqfmeasures/StructureDefinition/cqfm-testCaseDescription",
        "valueMarkdown": "Inpatient encounter where patient started in ER prior to admission. Age 17 in ER, turned 18 at exact date as start of IP encounter, meds administered, no lab tests. Edge case. Denominator pass."
      } ],
      "modifierExtension": [ {
        "url": "http://hl7.org/fhir/us/cqfmeasures/StructureDefinition/cqfm-isTestCase",
        "valueBoolean": true
      } ],
      "status": "complete",
      "type": "individual",
      "measure": "https://madie.cms.gov/Measure/HospitalHarmSevereHypoglycemiaFHIR",
      "period": {
        "start": "2025-01-01",
        "end": "2025-12-31"
      },
      "group": [ {
        "population": [ {
          "code": {
            "coding": [ {
              "system": "http://terminology.hl7.org/CodeSystem/measure-population",
              "code": "initial-population",
              "display": "Initial Population"
            } ]
          },
          "count": 1
        }, {
          "code": {
            "coding": [ {
              "system": "http://terminology.hl7.org/CodeSystem/measure-population",
              "code": "denominator",
              "display": "Denominator"
            } ]
          },
          "count": 1
        }, {
          "code": {
            "coding": [ {
              "system": "http://terminology.hl7.org/CodeSystem/measure-population",
              "code": "numerator",
              "display": "Numerator"
            } ]
          },
          "count": 0
        } ]
      } ],
      "evaluatedResource": [ {
        "reference": "https://madie.cms.gov/Patient/e360ffc2-5b98-425a-a2bd-b051ba5ec506"
      }, {
        "reference": "https://madie.cms.gov/Encounter/5bfc28feb8484648d6d75286"
      }, {
        "reference": "https://madie.cms.gov/Encounter/5bfc28feb8484648d6d75287"
      }, {
        "reference": "https://madie.cms.gov/MedicationAdministration/60130b7778b8e50000642142"
      }, {
        "reference": "https://madie.cms.gov/Coverage/1"
      }, {
        "reference": "https://madie.cms.gov/Organization/123456"
      }, {
        "reference": "https://madie.cms.gov/Practitioner/practitioner-123456"
      } ]
    },
    "request": {
      "method": "POST",
      "url": "MeasureReport/62722cfc-14c9-45f0-b173-f079502390e7"
    }
  } ]
}