{"resourceType":"Bundle","id":"tests-3b8d6a18-b4a3-4369-b33c-6a6daa6b5b4c-bundle","type":"transaction","entry":[{"fullUrl":"https://madie.cms.gov/Patient/3b8d6a18-b4a3-4369-b33c-6a6daa6b5b4c","resource":{"resourceType":"Patient","id":"3b8d6a18-b4a3-4369-b33c-6a6daa6b5b4c","meta":{"profile":["http://hl7.org/fhir/us/qicore/StructureDefinition/qicore-patient"]},"text":{"status":"generated","div":"<div xmlns=\"http://www.w3.org/1999/xhtml\"><div class=\"hapiHeaderText\">MedDCAnticoaStartTmEQEncDischTm <b>NUMERPASS </b></div><table class=\"hapiPropertyTable\"><tbody><tr><td>Identifier</td><td>9128716b0b21eec571089f9d5d345182</td></tr><tr><td>Date of birth</td><td><span>23 May 1954</span></td></tr></tbody></table></div>"},"extension":[{"url":"http://hl7.org/fhir/us/core/StructureDefinition/us-core-race","extension":[{"url":"ombCategory","valueCoding":{"system":"urn:oid:2.16.840.1.113883.6.238","code":"1002-5","display":"American Indian or Alaska Native","userSelected":true}},{"url":"text","valueString":"American Indian or Alaska Native"}]},{"url":"http://hl7.org/fhir/us/core/StructureDefinition/us-core-ethnicity","extension":[{"url":"ombCategory","valueCoding":{"system":"urn:oid:2.16.840.1.113883.6.238","code":"2135-2","display":"Hispanic or Latino","userSelected":true}},{"url":"text","valueString":"Hispanic or Latino"}]}],"identifier":[{"type":{"coding":[{"system":"http://terminology.hl7.org/CodeSystem/v2-0203","code":"MR"}]},"system":"https://bonnie-fhir.healthit.gov/","value":"633c9d030968f8012250fc9d"}],"active":true,"name":[{"use":"usual","family":"NUMERPass","given":["MedDCAnticoaStartTmEQEncDischTm"]}],"gender":"female","birthDate":"1955-05-23"},"request":{"method":"PUT","url":"Patient/3b8d6a18-b4a3-4369-b33c-6a6daa6b5b4c"}},{"fullUrl":"https://madie.cms.gov/Encounter/ffb8a9f5-cf6a-49bf-aea4-5d0808f0ec01","resource":{"resourceType":"Encounter","id":"ffb8a9f5-cf6a-49bf-aea4-5d0808f0ec01","meta":{"profile":["http://hl7.org/fhir/us/qicore/StructureDefinition/qicore-encounter"]},"status":"finished","class":{"system":"http://terminology.hl7.org/CodeSystem/v3-ActCode","code":"IMP","display":"inpatient encounter"},"type":[{"coding":[{"system":"http://snomed.info/sct","code":"32485007"}]}],"subject":{"reference":"Patient/3b8d6a18-b4a3-4369-b33c-6a6daa6b5b4c"},"period":{"start":"2026-11-20T08:00:00.000Z","end":"2026-11-24T08:15:00.000Z"},"length":{"value":4,"unit":"days"},"diagnosis":[{"condition":{"reference":"Condition/a9e1077c-35b9-42a8-bb90-020aa6ffd66c"},"use":{"coding":[{"system":"http://terminology.hl7.org/CodeSystem/diagnosis-role","code":"billing","display":"Billing"}]},"rank":1}]},"request":{"method":"PUT","url":"Encounter/ffb8a9f5-cf6a-49bf-aea4-5d0808f0ec01"}},{"fullUrl":"https://madie.cms.gov/MedicationRequest/79d19fdb-3e08-4dd0-a89e-0b7b14bd9168","resource":{"resourceType":"MedicationRequest","id":"79d19fdb-3e08-4dd0-a89e-0b7b14bd9168","meta":{"profile":["http://hl7.org/fhir/us/qicore/StructureDefinition/qicore-medicationrequest"]},"status":"active","intent":"order","category":[{"coding":[{"system":"http://terminology.hl7.org/CodeSystem/medicationrequest-category","code":"community","display":"Community","userSelected":true}]}],"medicationCodeableConcept":{"coding":[{"system":"http://www.nlm.nih.gov/research/umls/rxnorm","code":"308351"}]},"subject":{"reference":"Patient/3b8d6a18-b4a3-4369-b33c-6a6daa6b5b4c"},"authoredOn":"2026-11-24T08:15:00.000+00:00","requester":{"reference":"Practitioner/example"}},"request":{"method":"PUT","url":"MedicationRequest/79d19fdb-3e08-4dd0-a89e-0b7b14bd9168"}},{"fullUrl":"https://madie.cms.gov/Coverage/58db83fd-3af9-4d37-bffa-110108544fb3","resource":{"resourceType":"Coverage","id":"58db83fd-3af9-4d37-bffa-110108544fb3","status":"active","beneficiary":{"reference":"Patient/3b8d6a18-b4a3-4369-b33c-6a6daa6b5b4c"},"period":{"start":"1955-05-23T08:00:00.000Z"},"payor":[{"reference":"Organization/f7da4368-fb6d-4d73-a75b-f78024cbb18d"}]},"request":{"method":"PUT","url":"Coverage/58db83fd-3af9-4d37-bffa-110108544fb3"}},{"fullUrl":"https://madie.cms.gov/Procedure/44168986-48a2-43e4-8204-a1ec71225218","resource":{"resourceType":"Procedure","id":"44168986-48a2-43e4-8204-a1ec71225218","meta":{"profile":["http://hl7.org/fhir/us/qicore/StructureDefinition/qicore-procedure"]},"extension":[{"url":"http://hl7.org/fhir/us/qicore/StructureDefinition/qicore-recorded","valueDateTime":"2026-11-19T09:35:00-04:00"}],"status":"unknown","code":{"coding":[{"system":"http://www.cms.gov/Medicare/Coding/ICD10","code":"02560ZZ"},{"system":"http://snomed.info/sct","code":"175095005"}]},"subject":{"reference":"Patient/3b8d6a18-b4a3-4369-b33c-6a6daa6b5b4c"},"performedPeriod":{"start":"2026-11-20T06:00:00.000Z","end":"2026-11-20T07:15:00.000Z"}},"request":{"method":"PUT","url":"Procedure/44168986-48a2-43e4-8204-a1ec71225218"}},{"fullUrl":"https://madie.cms.gov/Condition/a9e1077c-35b9-42a8-bb90-020aa6ffd66c","resource":{"resourceType":"Condition","id":"a9e1077c-35b9-42a8-bb90-020aa6ffd66c","meta":{"profile":["http://hl7.org/fhir/us/qicore/StructureDefinition/qicore-condition"]},"clinicalStatus":{"coding":[{"system":"http://terminology.hl7.org/CodeSystem/condition-clinical","code":"active"}]},"verificationStatus":{"coding":[{"system":"http://terminology.hl7.org/CodeSystem/condition-ver-status","code":"confirmed"}]},"category":[{"coding":[{"system":"http://terminology.hl7.org/CodeSystem/condition-category","code":"encounter-diagnosis","display":"Encounter Diagnosis"}]}],"code":{"coding":[{"system":"http://snomed.info/sct","version":"2021-09","code":"111297002","display":"Nonparalytic stroke (disorder)","userSelected":true}]},"subject":{"reference":"Patient/3b8d6a18-b4a3-4369-b33c-6a6daa6b5b4c"},"recordedDate":"2026-10-13T08:00:00.000+00:00"},"request":{"method":"PUT","url":"Condition/a9e1077c-35b9-42a8-bb90-020aa6ffd66c"}},{"fullUrl":"https://madie.cms.gov/Organization/045f73e5-33f3-488e-b3bc-ac51696ea69e","resource":{"resourceType":"Organization","id":"f7da4368-fb6d-4d73-a75b-f78024cbb18d","meta":{"profile":["http://hl7.org/fhir/us/qicore/StructureDefinition/qicore-organization"]},"identifier":[{"use":"temp","system":"urn:oid:2.16.840.1.113883.4.4","value":"21-3259825"}],"active":true,"type":[{"coding":[{"system":"http://terminology.hl7.org/CodeSystem/organization-type","code":"pay","display":"Payer"}]}],"name":"Blue Cross Blue Shield of Texas","telecom":[{"system":"phone","value":"(+1) 972-766-6900"}],"address":[{"use":"billing","type":"postal","line":["P.O. Box 660044"],"city":"Dallas","state":"TX","postalCode":"75266-0044","country":"USA"}]},"request":{"method":"PUT","url":"Organization/f7da4368-fb6d-4d73-a75b-f78024cbb18d"}},{"fullUrl":"https://madie.cms.gov/Practitioner/8c788496-b500-48c4-9fe2-a39808d691ef","resource":{"resourceType":"Practitioner","id":"8c788496-b500-48c4-9fe2-a39808d691ef","identifier":[{"system":"http://hl7.org/fhir/sid/us-npi","value":"123456"}],"name":[{"family":"Evil","prefix":["Dr"]}]},"request":{"method":"PUT","url":"Practitioner/8c788496-b500-48c4-9fe2-a39808d691ef"}},{"fullUrl":"https://madie.cms.gov/MeasureReport/070edfcf-a814-44f1-ba69-d763699b57a3","resource":{"resourceType":"MeasureReport","id":"070edfcf-a814-44f1-ba69-d763699b57a3","meta":{"profile":["http://hl7.org/fhir/us/cqfmeasures/StructureDefinition/test-case-cqfm"]},"contained":[{"resourceType":"Parameters","id":"9335ee80-0733-44d3-b431-aef61cf43dd8-parameters","parameter":[{"name":"subject","valueString":"3b8d6a18-b4a3-4369-b33c-6a6daa6b5b4c"}]}],"extension":[{"url":"http://hl7.org/fhir/us/cqfmeasures/StructureDefinition/cqfm-inputParameters","valueReference":{"reference":"#9335ee80-0733-44d3-b431-aef61cf43dd8-parameters"}},{"url":"http://hl7.org/fhir/us/cqfmeasures/StructureDefinition/cqfm-testCaseDescription","valueMarkdown":"Coverage for AA procedure listed as unknown"}],"modifierExtension":[{"url":"http://hl7.org/fhir/us/cqfmeasures/StructureDefinition/cqfm-isTestCase","valueBoolean":true}],"status":"complete","type":"individual","measure":"https://madie.cms.gov/Measure/CMS71FHIRSTKAnticoagAFFlutter","period":{"start":"2026-01-01","end":"2026-12-31"},"group":[{"population":[{"code":{"coding":[{"system":"http://terminology.hl7.org/CodeSystem/measure-population","code":"initial-population","display":"Initial Population"}]},"count":1},{"code":{"coding":[{"system":"http://terminology.hl7.org/CodeSystem/measure-population","code":"denominator","display":"Denominator"}]},"count":0},{"code":{"coding":[{"system":"http://terminology.hl7.org/CodeSystem/measure-population","code":"denominator-exclusion","display":"Denominator Exclusion"}]},"count":0},{"code":{"coding":[{"system":"http://terminology.hl7.org/CodeSystem/measure-population","code":"numerator","display":"Numerator"}]},"count":0},{"code":{"coding":[{"system":"http://terminology.hl7.org/CodeSystem/measure-population","code":"denominator-exception","display":"Denominator Exception"}]},"count":0}]}]},"request":{"method":"PUT","url":"MeasureReport/070edfcf-a814-44f1-ba69-d763699b57a3"}}]}