{
  "resourceType": "Bundle",
  "id": "658468461634168461351",
  "type": "transaction",
  "entry": [ {
    "fullUrl": "https://madie.cms.gov/Patient/ef395d2c-85a3-41a2-b6cb-37c4ff5217dc",
    "resource": {
      "resourceType": "Patient",
      "id": "ef395d2c-85a3-41a2-b6cb-37c4ff5217dc",
      "meta": {
        "profile": [ "http://hl7.org/fhir/us/qicore/StructureDefinition/qicore-patient" ]
      },
      "extension": [ {
        "url": "http://hl7.org/fhir/us/core/StructureDefinition/us-core-race",
        "extension": [ {
          "url": "ombCategory",
          "valueCoding": {
            "system": "urn:oid:2.16.840.1.113883.6.238",
            "code": "1002-5",
            "display": "American Indian or Alaska Native"
          }
        }, {
          "url": "text",
          "valueString": "American Indian or Alaska Native"
        } ]
      }, {
        "url": "http://hl7.org/fhir/us/core/StructureDefinition/us-core-ethnicity",
        "extension": [ {
          "url": "ombCategory",
          "valueCoding": {
            "system": "urn:oid:2.16.840.1.113883.6.238",
            "code": "2186-5",
            "display": "Not Hispanic or Latino"
          }
        }, {
          "url": "text",
          "valueString": "Not Hispanic or Latino"
        } ]
      } ],
      "identifier": [ {
        "type": {
          "coding": [ {
            "system": "http://terminology.hl7.org/CodeSystem/v2-0203",
            "code": "MR"
          } ]
        },
        "system": "https://bonnie-fhir.healthit.gov/",
        "value": "431385494631"
      } ],
      "name": [ {
        "family": "DENEXPass",
        "given": [ "LVADCmplictns" ]
      } ],
      "gender": "male",
      "birthDate": "1968-06-14"
    },
    "request": {
      "method": "POST",
      "url": "Patient/ef395d2c-85a3-41a2-b6cb-37c4ff5217dc"
    }
  }, {
    "fullUrl": "https://madie.cms.gov/Encounter/68496431333513516",
    "resource": {
      "resourceType": "Encounter",
      "id": "68496431333513516",
      "meta": {
        "profile": [ "http://hl7.org/fhir/us/qicore/StructureDefinition/qicore-encounter" ]
      },
      "status": "finished",
      "class": {
        "system": "http://terminology.hl7.org/CodeSystem/v3-ActCode",
        "code": "AMB",
        "display": "ambulatory"
      },
      "type": [ {
        "coding": [ {
          "system": "http://snomed.info/sct",
          "version": "http://snomed.info/sct/731000124108/version/202303",
          "code": "281036007",
          "display": "Follow-up consultation (procedure)"
        } ]
      } ],
      "subject": {
        "reference": "Patient/ef395d2c-85a3-41a2-b6cb-37c4ff5217dc"
      },
      "period": {
        "start": "2025-03-31T14:40:00.000+00:00",
        "end": "2025-03-31T14:40:00.000+00:00"
      }
    },
    "request": {
      "method": "POST",
      "url": "Encounter/68496431333513516"
    }
  }, {
    "fullUrl": "https://madie.cms.gov/Encounter/874946516313513",
    "resource": {
      "resourceType": "Encounter",
      "id": "874946516313513",
      "meta": {
        "profile": [ "http://hl7.org/fhir/us/qicore/StructureDefinition/qicore-encounter" ]
      },
      "status": "finished",
      "class": {
        "system": "http://terminology.hl7.org/CodeSystem/v3-ActCode",
        "code": "AMB",
        "display": "ambulatory"
      },
      "type": [ {
        "coding": [ {
          "system": "http://snomed.info/sct",
          "version": "http://snomed.info/sct/731000124108/version/202303",
          "code": "281036007",
          "display": "Follow-up consultation (procedure)"
        } ]
      } ],
      "subject": {
        "reference": "Patient/ef395d2c-85a3-41a2-b6cb-37c4ff5217dc"
      },
      "period": {
        "start": "2025-05-15T11:50:00.000+00:00",
        "end": "2025-05-15T11:50:00.000+00:00"
      }
    },
    "request": {
      "method": "POST",
      "url": "Encounter/874946516313513"
    }
  }, {
    "fullUrl": "https://madie.cms.gov/Condition/68496416313513785",
    "resource": {
      "resourceType": "Condition",
      "id": "68496416313513785",
      "meta": {
        "profile": [ "http://hl7.org/fhir/us/qicore/StructureDefinition/qicore-condition" ]
      },
      "clinicalStatus": {
        "coding": [ {
          "system": "http://terminology.hl7.org/CodeSystem/condition-clinical",
          "code": "active",
          "display": "active"
        } ]
      },
      "verificationStatus": {
        "coding": [ {
          "system": "http://terminology.hl7.org/CodeSystem/condition-ver-status",
          "code": "confirmed",
          "display": "Confirmed"
        } ]
      },
      "category": [ {
        "coding": [ {
          "system": "http://terminology.hl7.org/CodeSystem/condition-category",
          "code": "problem-list-item",
          "display": "Problem List Item"
        } ]
      } ],
      "code": {
        "coding": [ {
          "system": "http://snomed.info/sct",
          "version": "http://snomed.info/sct/731000124108/version/202303",
          "code": "10091002",
          "display": "High output heart failure (disorder)"
        } ]
      },
      "subject": {
        "reference": "Patient/ef395d2c-85a3-41a2-b6cb-37c4ff5217dc"
      },
      "onsetPeriod": {
        "start": "2024-05-17T10:00:00.000+00:00"
      }
    },
    "request": {
      "method": "POST",
      "url": "Condition/68496416313513785"
    }
  }, {
    "fullUrl": "https://madie.cms.gov/Condition/879413516131313",
    "resource": {
      "resourceType": "Condition",
      "id": "879413516131313",
      "meta": {
        "profile": [ "http://hl7.org/fhir/us/qicore/StructureDefinition/qicore-condition" ]
      },
      "clinicalStatus": {
        "coding": [ {
          "system": "http://terminology.hl7.org/CodeSystem/condition-clinical",
          "code": "active",
          "display": "Active"
        } ]
      },
      "verificationStatus": {
        "coding": [ {
          "system": "http://terminology.hl7.org/CodeSystem/condition-ver-status",
          "code": "confirmed",
          "display": "Confirmed"
        } ]
      },
      "category": [ {
        "coding": [ {
          "system": "http://terminology.hl7.org/CodeSystem/condition-category",
          "code": "problem-list-item",
          "display": "Problem List Item"
        } ]
      } ],
      "code": {
        "coding": [ {
          "system": "http://snomed.info/sct",
          "version": "http://snomed.info/sct/731000124108/version/202303",
          "code": "991000124109",
          "display": "Severe left ventricular systolic dysfunction (disorder)"
        } ]
      },
      "subject": {
        "reference": "Patient/ef395d2c-85a3-41a2-b6cb-37c4ff5217dc"
      },
      "onsetPeriod": {
        "start": "2025-03-25T16:00:00.000+00:00",
        "end": "2025-03-30T16:00:00.000+00:00"
      }
    },
    "request": {
      "method": "POST",
      "url": "Condition/879413516131313"
    }
  }, {
    "fullUrl": "https://madie.cms.gov/Procedure/684641631331231",
    "resource": {
      "resourceType": "Procedure",
      "id": "684641631331231",
      "meta": {
        "profile": [ "http://hl7.org/fhir/us/qicore/StructureDefinition/qicore-procedure" ]
      },
      "extension": [ {
        "url": "http://hl7.org/fhir/us/qicore/StructureDefinition/qicore-recorded",
        "valueDateTime": "2024-09-25T13:00:00.000+00:00"
      } ],
      "status": "completed",
      "code": {
        "coding": [ {
          "system": "http://www.ama-assn.org/go/cpt",
          "version": "2023",
          "code": "33976",
          "display": "Insertion of ventricular assist device; extracorporeal, biventricular"
        } ]
      },
      "subject": {
        "reference": "Patient/ef395d2c-85a3-41a2-b6cb-37c4ff5217dc"
      },
      "performedPeriod": {
        "start": "2024-09-25T11:00:00.000+00:00",
        "end": "2024-09-25T12:00:00.000+00:00"
      }
    },
    "request": {
      "method": "POST",
      "url": "Procedure/684641631331231"
    }
  }, {
    "fullUrl": "https://madie.cms.gov/Condition/251324613213131",
    "resource": {
      "resourceType": "Condition",
      "id": "251324613213131",
      "meta": {
        "profile": [ "http://hl7.org/fhir/us/qicore/StructureDefinition/qicore-condition" ]
      },
      "clinicalStatus": {
        "coding": [ {
          "system": "http://terminology.hl7.org/CodeSystem/condition-clinical",
          "code": "active",
          "display": "Active"
        } ]
      },
      "verificationStatus": {
        "coding": [ {
          "system": "http://terminology.hl7.org/CodeSystem/condition-ver-status",
          "code": "confirmed",
          "display": "Confirmed"
        } ]
      },
      "category": [ {
        "coding": [ {
          "system": "http://terminology.hl7.org/CodeSystem/condition-category",
          "code": "problem-list-item",
          "display": "Problem List Item"
        } ]
      } ],
      "code": {
        "coding": [ {
          "system": "http://snomed.info/sct",
          "version": "http://snomed.info/sct/731000124108/version/202303",
          "code": "764680009",
          "display": "Infection of left ventricular assist device driveline (disorder)"
        } ]
      },
      "subject": {
        "reference": "Patient/ef395d2c-85a3-41a2-b6cb-37c4ff5217dc"
      },
      "onsetDateTime": "2025-01-14T16:00:00.000+00:00"
    },
    "request": {
      "method": "POST",
      "url": "Condition/251324613213131"
    }
  }, {
    "fullUrl": "https://madie.cms.gov/MeasureReport/023f0fc7-b7b6-477b-8bb4-cf1ab0a89883",
    "resource": {
      "resourceType": "MeasureReport",
      "id": "023f0fc7-b7b6-477b-8bb4-cf1ab0a89883",
      "meta": {
        "profile": [ "http://hl7.org/fhir/us/cqfmeasures/StructureDefinition/test-case-cqfm" ]
      },
      "contained": [ {
        "resourceType": "Parameters",
        "id": "437c0a16-4623-482c-a1d5-88da9e084da1-parameters",
        "parameter": [ {
          "name": "subject",
          "valueString": "ef395d2c-85a3-41a2-b6cb-37c4ff5217dc"
        } ]
      } ],
      "extension": [ {
        "url": "http://hl7.org/fhir/us/cqfmeasures/StructureDefinition/cqfm-inputParameters",
        "valueReference": {
          "reference": "#437c0a16-4623-482c-a1d5-88da9e084da1-parameters"
        }
      }, {
        "url": "http://hl7.org/fhir/us/cqfmeasures/StructureDefinition/cqfm-testCaseDescription",
        "valueMarkdown": "Patient has 2 ambulatory encounters, HF diagnosis and LVSD and meets denominator exclusion with history of LVAD complications"
      } ],
      "modifierExtension": [ {
        "url": "http://hl7.org/fhir/us/cqfmeasures/StructureDefinition/cqfm-isTestCase",
        "valueBoolean": true
      } ],
      "status": "complete",
      "type": "individual",
      "measure": "https://madie.cms.gov/Measure/HFACEIorARBorARNIforLVSDFHIR",
      "period": {
        "start": "2025-01-01",
        "end": "2025-12-31"
      },
      "group": [ {
        "population": [ {
          "code": {
            "coding": [ {
              "system": "http://terminology.hl7.org/CodeSystem/measure-population",
              "code": "initial-population",
              "display": "Initial Population"
            } ]
          },
          "count": 1
        }, {
          "code": {
            "coding": [ {
              "system": "http://terminology.hl7.org/CodeSystem/measure-population",
              "code": "denominator",
              "display": "Denominator"
            } ]
          },
          "count": 1
        }, {
          "code": {
            "coding": [ {
              "system": "http://terminology.hl7.org/CodeSystem/measure-population",
              "code": "denominator-exclusion",
              "display": "Denominator Exclusion"
            } ]
          },
          "count": 1
        }, {
          "code": {
            "coding": [ {
              "system": "http://terminology.hl7.org/CodeSystem/measure-population",
              "code": "denominator-exception",
              "display": "Denominator Exception"
            } ]
          },
          "count": 0
        }, {
          "code": {
            "coding": [ {
              "system": "http://terminology.hl7.org/CodeSystem/measure-population",
              "code": "numerator",
              "display": "Numerator"
            } ]
          },
          "count": 0
        } ]
      } ],
      "evaluatedResource": [ {
        "reference": "https://madie.cms.gov/Patient/ef395d2c-85a3-41a2-b6cb-37c4ff5217dc"
      }, {
        "reference": "https://madie.cms.gov/Encounter/68496431333513516"
      }, {
        "reference": "https://madie.cms.gov/Encounter/874946516313513"
      }, {
        "reference": "https://madie.cms.gov/Condition/68496416313513785"
      }, {
        "reference": "https://madie.cms.gov/Condition/879413516131313"
      }, {
        "reference": "https://madie.cms.gov/Procedure/684641631331231"
      }, {
        "reference": "https://madie.cms.gov/Condition/251324613213131"
      } ]
    },
    "request": {
      "method": "POST",
      "url": "MeasureReport/023f0fc7-b7b6-477b-8bb4-cf1ab0a89883"
    }
  } ]
}