{"resourceType":"Bundle","id":"tests-5736982d-6c82-4815-b0d2-3416ebe105f4-bundle","type":"transaction","entry":[{"fullUrl":"https://madie.cms.gov/Patient/5736982d-6c82-4815-b0d2-3416ebe105f4","resource":{"resourceType":"Patient","id":"5736982d-6c82-4815-b0d2-3416ebe105f4","meta":{"profile":["http://hl7.org/fhir/us/qicore/StructureDefinition/qicore-patient"]},"text":{"status":"generated","div":"<div xmlns=\"http://www.w3.org/1999/xhtml\"><div class=\"hapiHeaderText\">PriorThrombolyticTherapy <b>DENEXPASS </b></div><table class=\"hapiPropertyTable\"><tbody><tr><td>Identifier</td><td>565104711a5f65734f311e1bcaee8e27aafbba4f5261e5e5779c11e36e48777e</td></tr><tr><td>Date of birth</td><td><span>26 September 1975</span></td></tr></tbody></table></div>"},"extension":[{"url":"http://hl7.org/fhir/us/core/StructureDefinition/us-core-race","extension":[{"url":"ombCategory","valueCoding":{"system":"urn:oid:2.16.840.1.113883.6.238","code":"2054-5","display":"Black or African American","userSelected":true}},{"url":"text","valueString":"Black or African American"}]},{"url":"http://hl7.org/fhir/us/core/StructureDefinition/us-core-ethnicity","extension":[{"url":"ombCategory","valueCoding":{"system":"urn:oid:2.16.840.1.113883.6.238","code":"2186-5","display":"Not Hispanic or Latino","userSelected":true}},{"url":"text","valueString":"Not Hispanic or Latino"}]}],"identifier":[{"type":{"coding":[{"system":"http://terminology.hl7.org/CodeSystem/v2-0203","code":"MR"}]},"system":"https://bonnie-fhir.healthit.gov/","value":"60f82c2f98086b570510e29a"}],"active":true,"name":[{"use":"usual","family":"DENEXFail","given":["PriorThrombolyticTherapy"]}],"gender":"female","birthDate":"1975-09-26"},"request":{"method":"PUT","url":"Patient/5736982d-6c82-4815-b0d2-3416ebe105f4"}},{"fullUrl":"https://madie.cms.gov/Encounter/5ce6cfeab84846725ea45883","resource":{"resourceType":"Encounter","id":"ffc393d1-ae57-432f-bba9-167166d30bad","meta":{"profile":["http://hl7.org/fhir/us/qicore/StructureDefinition/qicore-encounter"]},"status":"finished","class":{"system":"http://terminology.hl7.org/CodeSystem/v3-ActCode","code":"IMP","display":"inpatient encounter","userSelected":true},"type":[{"coding":[{"system":"http://snomed.info/sct","code":"32485007"}]}],"subject":{"reference":"Patient/5736982d-6c82-4815-b0d2-3416ebe105f4"},"period":{"start":"2025-10-10T06:15:00+00:00","end":"2025-10-24T11:30:00+00:00"},"length":{"value":14,"unit":"days"},"diagnosis":[{"condition":{"reference":"Condition/ischemic-stroke-824c"},"use":{"coding":[{"system":"http://terminology.hl7.org/CodeSystem/diagnosis-role","code":"billing","display":"Billing"}]},"rank":1},{"condition":{"reference":"Condition/prior-thrombolytic-therapy"},"use":{"coding":[{"system":"http://terminology.hl7.org/CodeSystem/diagnosis-role","code":"billing","display":"Billing"}]},"rank":2}]},"request":{"method":"PUT","url":"Encounter/ffc393d1-ae57-432f-bba9-167166d30bad"}},{"fullUrl":"https://madie.cms.gov/Condition/ischemic-stroke-824c","resource":{"resourceType":"Condition","id":"359dbf6a-444f-4f5d-bed1-c1559bdec9f8","meta":{"profile":["http://hl7.org/fhir/us/qicore/StructureDefinition/qicore-condition"]},"clinicalStatus":{"coding":[{"system":"http://terminology.hl7.org/CodeSystem/condition-clinical","code":"active"}]},"verificationStatus":{"coding":[{"system":"http://terminology.hl7.org/CodeSystem/condition-ver-status","code":"confirmed"}]},"category":[{"coding":[{"system":"http://terminology.hl7.org/CodeSystem/condition-category","code":"encounter-diagnosis","display":"Encounter Diagnosis"}]}],"code":{"coding":[{"system":"http://snomed.info/sct","version":"2020-09","code":"111297002","display":"Nonparalytic stroke (disorder)","userSelected":true}]},"subject":{"reference":"Patient/5736982d-6c82-4815-b0d2-3416ebe105f4"},"recordedDate":"2025-08-12T08:00:00.000+00:00"},"request":{"method":"PUT","url":"Condition/359dbf6a-444f-4f5d-bed1-c1559bdec9f8"}},{"fullUrl":"https://madie.cms.gov/Condition/prior-thrombolytic-therapy","resource":{"resourceType":"Condition","id":"9b368c13-b6c6-46fc-9cc2-f513e3e8180f","meta":{"profile":["http://hl7.org/fhir/us/qicore/StructureDefinition/qicore-condition"]},"clinicalStatus":{"coding":[{"system":"http://terminology.hl7.org/CodeSystem/condition-clinical","code":"active"}]},"verificationStatus":{"coding":[{"system":"http://terminology.hl7.org/CodeSystem/condition-ver-status","code":"confirmed"}]},"category":[{"coding":[{"system":"http://terminology.hl7.org/CodeSystem/condition-category","code":"encounter-diagnosis","display":"Encounter Diagnosis"}]}],"code":{"coding":[{"system":"http://hl7.org/fhir/sid/icd-10-cm","version":"2020-09","code":"Z92.82","display":"Status post administration of tPA (rtPA) in a different facility within the last 24 hours prior to admission to current facility","userSelected":true}]},"subject":{"reference":"Patient/5736982d-6c82-4815-b0d2-3416ebe105f4"},"recordedDate":"2025-10-10T06:16:00+00:00"},"request":{"method":"PUT","url":"Condition/9b368c13-b6c6-46fc-9cc2-f513e3e8180f"}},{"fullUrl":"https://madie.cms.gov/Coverage/1","resource":{"resourceType":"Coverage","id":"b794d91a-9cca-4f34-ae26-8ff195e1c1ff","meta":{"profile":["http://hl7.org/fhir/us/qicore/StructureDefinition/qicore-coverage"]},"status":"active","beneficiary":{"reference":"Patient/5736982d-6c82-4815-b0d2-3416ebe105f4"},"payor":[{"reference":"Organization/4b5a882f-1f43-485c-85c6-f5ad2337d5b1"}]},"request":{"method":"PUT","url":"Coverage/b794d91a-9cca-4f34-ae26-8ff195e1c1ff"}},{"fullUrl":"https://madie.cms.gov/Organization/123456","resource":{"resourceType":"Organization","id":"4b5a882f-1f43-485c-85c6-f5ad2337d5b1","meta":{"profile":["http://hl7.org/fhir/us/qicore/StructureDefinition/qicore-organization"]},"identifier":[{"use":"temp","system":"urn:oid:2.16.840.1.113883.4.4","value":"21-3259825"}],"active":true,"type":[{"coding":[{"system":"http://terminology.hl7.org/CodeSystem/organization-type","code":"pay","display":"Payer"}]}],"name":"Blue Cross Blue Shield of Texas","telecom":[{"system":"phone","value":"(+1) 972-766-6900"}],"address":[{"use":"billing","type":"postal","line":["P.O. Box 660044"],"city":"Dallas","state":"TX","postalCode":"75266-0044","country":"USA"}]},"request":{"method":"PUT","url":"Organization/4b5a882f-1f43-485c-85c6-f5ad2337d5b1"}},{"fullUrl":"https://madie.cms.gov/MeasureReport/d1160c95-5a77-4f75-8bb0-19a5d56366d3","resource":{"resourceType":"MeasureReport","id":"d1160c95-5a77-4f75-8bb0-19a5d56366d3","meta":{"profile":["http://hl7.org/fhir/us/cqfmeasures/StructureDefinition/test-case-cqfm"]},"contained":[{"resourceType":"Parameters","id":"cfe9554a-c0b6-4b44-a855-ecd8e903ea07-parameters","parameter":[{"name":"subject","valueString":"5736982d-6c82-4815-b0d2-3416ebe105f4"}]}],"extension":[{"url":"http://hl7.org/fhir/us/cqfmeasures/StructureDefinition/cqfm-inputParameters","valueReference":{"reference":"#cfe9554a-c0b6-4b44-a855-ecd8e903ea07-parameters"}},{"url":"http://hl7.org/fhir/us/cqfmeasures/StructureDefinition/cqfm-testCaseDescription","valueMarkdown":"Encounter Diagnosis Z-code Z92.82 signifying prior thrombolytic therapy. This causes DENEX to pass."}],"modifierExtension":[{"url":"http://hl7.org/fhir/us/cqfmeasures/StructureDefinition/cqfm-isTestCase","valueBoolean":true}],"status":"complete","type":"individual","measure":"https://madie.cms.gov/Measure/AntithromboticTherapyByEndofHospitalDay2FHIR","period":{"start":"2025-01-01","end":"2025-12-31"},"group":[{"population":[{"code":{"coding":[{"system":"http://terminology.hl7.org/CodeSystem/measure-population","code":"initial-population","display":"Initial Population"}]},"count":1},{"code":{"coding":[{"system":"http://terminology.hl7.org/CodeSystem/measure-population","code":"denominator","display":"Denominator"}]},"count":1},{"code":{"coding":[{"system":"http://terminology.hl7.org/CodeSystem/measure-population","code":"denominator-exclusion","display":"Denominator Exclusion"}]},"count":1},{"code":{"coding":[{"system":"http://terminology.hl7.org/CodeSystem/measure-population","code":"numerator","display":"Numerator"}]},"count":0},{"code":{"coding":[{"system":"http://terminology.hl7.org/CodeSystem/measure-population","code":"denominator-exception","display":"Denominator Exception"}]},"count":0}]}]},"request":{"method":"PUT","url":"MeasureReport/d1160c95-5a77-4f75-8bb0-19a5d56366d3"}}]}