{"resourceType":"Bundle","id":"tests-9915271c-d175-41e1-8550-2f698a2b9dc7-bundle","type":"transaction","entry":[{"fullUrl":"https://madie.cms.gov/Patient/9915271c-d175-41e1-8550-2f698a2b9dc7","resource":{"resourceType":"Patient","id":"9915271c-d175-41e1-8550-2f698a2b9dc7","meta":{"profile":["http://hl7.org/fhir/us/qicore/StructureDefinition/qicore-patient"]},"text":{"status":"generated","div":"<div xmlns=\"http://www.w3.org/1999/xhtml\"><div class=\"hapiHeaderText\">CMP&lt;1Day_DuringGap_ofEdandEncIP <b>DENEXPASS </b></div><table class=\"hapiPropertyTable\"><tbody><tr><td>Identifier</td><td>dad0cebb56286a674a92a9f3fadbb6cf</td></tr><tr><td>Date of birth</td><td><span>26 September 1975</span></td></tr></tbody></table></div>"},"extension":[{"url":"http://hl7.org/fhir/us/core/StructureDefinition/us-core-race","extension":[{"url":"ombCategory","valueCoding":{"system":"urn:oid:2.16.840.1.113883.6.238","code":"2054-5","display":"Black or African American","userSelected":true}},{"url":"text","valueString":"Black or African American"}]},{"url":"http://hl7.org/fhir/us/core/StructureDefinition/us-core-ethnicity","extension":[{"url":"ombCategory","valueCoding":{"system":"urn:oid:2.16.840.1.113883.6.238","code":"2186-5","display":"Not Hispanic or Latino","userSelected":true}},{"url":"text","valueString":"Not Hispanic or Latino"}]}],"identifier":[{"type":{"coding":[{"system":"http://terminology.hl7.org/CodeSystem/v2-0203","code":"MR"}]},"system":"https://bonnie-fhir.healthit.gov/","value":"60f82c2e98086b570510e28a"}],"active":true,"name":[{"use":"usual","family":"DENEXPass","given":["CMP<1Day_DuringGap_ofEdandEncIP"]}],"gender":"female","birthDate":"1975-09-26"},"request":{"method":"PUT","url":"Patient/9915271c-d175-41e1-8550-2f698a2b9dc7"}},{"fullUrl":"https://madie.cms.gov/Encounter/5c954893b848462de0ae6260","resource":{"resourceType":"Encounter","id":"2a479b3c-ac96-486e-9c9c-f0153ada9112","meta":{"profile":["http://hl7.org/fhir/us/qicore/StructureDefinition/qicore-encounter"]},"status":"finished","class":{"system":"http://terminology.hl7.org/CodeSystem/v3-ActCode","code":"EMER","display":"emergency","userSelected":true},"type":[{"coding":[{"system":"http://snomed.info/sct","code":"4525004"}]}],"subject":{"reference":"Patient/9915271c-d175-41e1-8550-2f698a2b9dc7"},"period":{"start":"2025-10-10T04:00:00+00:00","end":"2025-10-10T06:15:00+00:00"},"length":{"value":0,"unit":"days"}},"request":{"method":"PUT","url":"Encounter/2a479b3c-ac96-486e-9c9c-f0153ada9112"}},{"fullUrl":"https://madie.cms.gov/Encounter/5c954893b848462de0ae6261","resource":{"resourceType":"Encounter","id":"0d43d5ff-911a-424b-b552-fe8922157262","meta":{"profile":["http://hl7.org/fhir/us/qicore/StructureDefinition/qicore-encounter"]},"status":"finished","class":{"system":"http://terminology.hl7.org/CodeSystem/v3-ActCode","code":"IMP","display":"inpatient encounter","userSelected":true},"type":[{"coding":[{"system":"http://snomed.info/sct","code":"32485007"}]}],"subject":{"reference":"Patient/9915271c-d175-41e1-8550-2f698a2b9dc7"},"period":{"start":"2025-10-10T07:00:00+00:00","end":"2025-10-12T06:31:00+00:00"},"length":{"value":2,"unit":"days"},"diagnosis":[{"condition":{"reference":"Condition/ischemic-stroke-8a9a"},"use":{"coding":[{"system":"http://terminology.hl7.org/CodeSystem/diagnosis-role","code":"billing","display":"Billing"}]},"rank":1}]},"request":{"method":"PUT","url":"Encounter/0d43d5ff-911a-424b-b552-fe8922157262"}},{"fullUrl":"https://madie.cms.gov/Procedure/5c954893b848462de0ae6263","resource":{"resourceType":"Procedure","id":"c5ac9b0a-4ec2-494d-b9a5-87e803dbeb3e","meta":{"profile":["http://hl7.org/fhir/us/qicore/StructureDefinition/qicore-procedure"]},"extension":[{"url":"http://hl7.org/fhir/us/qicore/StructureDefinition/qicore-recorded","valueDateTime":"2025-11-19T09:35:00-04:00"}],"status":"completed","code":{"coding":[{"system":"http://snomed.info/sct","code":"133918004"}]},"subject":{"reference":"Patient/9915271c-d175-41e1-8550-2f698a2b9dc7"},"performedPeriod":{"start":"2025-10-10T06:20:00+00:00"}},"request":{"method":"PUT","url":"Procedure/c5ac9b0a-4ec2-494d-b9a5-87e803dbeb3e"}},{"fullUrl":"https://madie.cms.gov/Coverage/5e20a36c1c76ba6c5896ebed","resource":{"resourceType":"Coverage","id":"ae1139a6-c992-4242-a88d-b10336ac3082","status":"active","beneficiary":{"reference":"Patient/9915271c-d175-41e1-8550-2f698a2b9dc7"},"period":{"start":"1975-09-26T08:00:00+00:00"},"payor":[{"reference":"Organization/42846cc3-1db0-4bf7-b9ff-8b81fa6e835d"}]},"request":{"method":"PUT","url":"Coverage/ae1139a6-c992-4242-a88d-b10336ac3082"}},{"fullUrl":"https://madie.cms.gov/Condition/ischemic-stroke-8a9a","resource":{"resourceType":"Condition","id":"4f1d80f6-73b2-42bf-a7ab-632f31729ddd","meta":{"profile":["http://hl7.org/fhir/us/qicore/StructureDefinition/qicore-condition"]},"clinicalStatus":{"coding":[{"system":"http://terminology.hl7.org/CodeSystem/condition-clinical","code":"active"}]},"verificationStatus":{"coding":[{"system":"http://terminology.hl7.org/CodeSystem/condition-ver-status","code":"confirmed"}]},"category":[{"coding":[{"system":"http://terminology.hl7.org/CodeSystem/condition-category","code":"encounter-diagnosis","display":"Encounter Diagnosis"}]}],"code":{"coding":[{"system":"http://snomed.info/sct","version":"2020-09","code":"111297002","display":"Nonparalytic stroke (disorder)","userSelected":true}]},"subject":{"reference":"Patient/9915271c-d175-41e1-8550-2f698a2b9dc7"},"recordedDate":"2025-08-13T08:00:00.000+00:00"},"request":{"method":"PUT","url":"Condition/4f1d80f6-73b2-42bf-a7ab-632f31729ddd"}},{"fullUrl":"https://madie.cms.gov/Organization/123456","resource":{"resourceType":"Organization","id":"42846cc3-1db0-4bf7-b9ff-8b81fa6e835d","meta":{"profile":["http://hl7.org/fhir/us/qicore/StructureDefinition/qicore-organization"]},"identifier":[{"use":"temp","system":"urn:oid:2.16.840.1.113883.4.4","value":"21-3259825"}],"active":true,"type":[{"coding":[{"system":"http://terminology.hl7.org/CodeSystem/organization-type","code":"pay","display":"Payer"}]}],"name":"Blue Cross Blue Shield of Texas","telecom":[{"system":"phone","value":"(+1) 972-766-6900"}],"address":[{"use":"billing","type":"postal","line":["P.O. Box 660044"],"city":"Dallas","state":"TX","postalCode":"75266-0044","country":"USA"}]},"request":{"method":"PUT","url":"Organization/42846cc3-1db0-4bf7-b9ff-8b81fa6e835d"}},{"fullUrl":"https://madie.cms.gov/MeasureReport/fb1f4a70-fdd2-4430-a1bf-b9b38521d43f","resource":{"resourceType":"MeasureReport","id":"fb1f4a70-fdd2-4430-a1bf-b9b38521d43f","meta":{"profile":["http://hl7.org/fhir/us/cqfmeasures/StructureDefinition/test-case-cqfm"]},"contained":[{"resourceType":"Parameters","id":"2b6755de-283e-462c-96a8-d7b1c7d3134c-parameters","parameter":[{"name":"subject","valueString":"9915271c-d175-41e1-8550-2f698a2b9dc7"}]}],"extension":[{"url":"http://hl7.org/fhir/us/cqfmeasures/StructureDefinition/cqfm-inputParameters","valueReference":{"reference":"#2b6755de-283e-462c-96a8-d7b1c7d3134c-parameters"}},{"url":"http://hl7.org/fhir/us/cqfmeasures/StructureDefinition/cqfm-testCaseDescription","valueMarkdown":"Patient receives comfort measures performed <= 1 (=0 day) day during Gap of Ed and IP encounter\n"}],"modifierExtension":[{"url":"http://hl7.org/fhir/us/cqfmeasures/StructureDefinition/cqfm-isTestCase","valueBoolean":true}],"status":"complete","type":"individual","measure":"https://madie.cms.gov/Measure/AntithromboticTherapyByEndofHospitalDay2FHIR","period":{"start":"2025-01-01","end":"2025-12-31"},"group":[{"population":[{"code":{"coding":[{"system":"http://terminology.hl7.org/CodeSystem/measure-population","code":"initial-population","display":"Initial Population"}]},"count":1},{"code":{"coding":[{"system":"http://terminology.hl7.org/CodeSystem/measure-population","code":"denominator","display":"Denominator"}]},"count":1},{"code":{"coding":[{"system":"http://terminology.hl7.org/CodeSystem/measure-population","code":"denominator-exclusion","display":"Denominator Exclusion"}]},"count":1},{"code":{"coding":[{"system":"http://terminology.hl7.org/CodeSystem/measure-population","code":"numerator","display":"Numerator"}]},"count":0},{"code":{"coding":[{"system":"http://terminology.hl7.org/CodeSystem/measure-population","code":"denominator-exception","display":"Denominator Exception"}]},"count":0}]}]},"request":{"method":"PUT","url":"MeasureReport/fb1f4a70-fdd2-4430-a1bf-b9b38521d43f"}}]}