{"resourceType":"Bundle","id":"tests-53e176e2-42f5-4c27-a1fe-23a280982bde-bundle","type":"transaction","entry":[{"fullUrl":"https://madie.cms.gov/Patient/53e176e2-42f5-4c27-a1fe-23a280982bde","resource":{"resourceType":"Patient","id":"53e176e2-42f5-4c27-a1fe-23a280982bde","meta":{"profile":["http://hl7.org/fhir/us/qicore/StructureDefinition/qicore-patient"]},"text":{"status":"generated","div":"<div xmlns=\"http://www.w3.org/1999/xhtml\"><div class=\"hapiHeaderText\">EncPrinDx=IschemicStrokeTestOccurr <b>IPPPASS </b></div><table class=\"hapiPropertyTable\"><tbody><tr><td>Identifier</td><td>6e2b90860fcc9b1c4eb9431a66a27a09b7f448bf6d8d855872a784ef7a54a594</td></tr><tr><td>Date of birth</td><td><span>20 August 1994</span></td></tr></tbody></table></div>"},"extension":[{"url":"http://hl7.org/fhir/us/core/StructureDefinition/us-core-race","extension":[{"url":"ombCategory","valueCoding":{"system":"urn:oid:2.16.840.1.113883.6.238","code":"1002-5","display":"American Indian or Alaska Native","userSelected":true}},{"url":"text","valueString":"American Indian or Alaska Native"}]},{"url":"http://hl7.org/fhir/us/core/StructureDefinition/us-core-ethnicity","extension":[{"url":"ombCategory","valueCoding":{"system":"urn:oid:2.16.840.1.113883.6.238","code":"2186-5","display":"Not Hispanic or Latino","userSelected":true}},{"url":"text","valueString":"Not Hispanic or Latino"}]}],"identifier":[{"type":{"coding":[{"system":"http://terminology.hl7.org/CodeSystem/v2-0203","code":"MR"}]},"system":"https://bonnie-fhir.healthit.gov/","value":"60f82c2f98086b570510e2be"}],"active":true,"name":[{"use":"usual","family":"IPPPass","given":["EncPrinDx=IschemicStrokeTestOccurr"]}],"gender":"male","birthDate":"1994-08-20"},"request":{"method":"PUT","url":"Patient/53e176e2-42f5-4c27-a1fe-23a280982bde"}},{"fullUrl":"https://madie.cms.gov/Encounter/5cae4883b848462f6d818f9b","resource":{"resourceType":"Encounter","id":"e2194828-fc45-48bc-b582-08766a012aa5","meta":{"profile":["http://hl7.org/fhir/us/qicore/StructureDefinition/qicore-encounter"]},"status":"finished","class":{"system":"http://terminology.hl7.org/CodeSystem/v3-ActCode","code":"IMP","display":"inpatient encounter"},"type":[{"coding":[{"system":"http://snomed.info/sct","code":"183452005"}]}],"subject":{"reference":"Patient/53e176e2-42f5-4c27-a1fe-23a280982bde"},"period":{"start":"2025-08-20T09:00:00+00:00","end":"2025-08-20T23:59:00+00:00"},"length":{"value":0,"unit":"days"}},"request":{"method":"PUT","url":"Encounter/e2194828-fc45-48bc-b582-08766a012aa5"}},{"fullUrl":"https://madie.cms.gov/Encounter/5cae4883b848462f6d818f9c","resource":{"resourceType":"Encounter","id":"fa5ff179-7716-47b1-9806-a2df1af9e147","meta":{"profile":["http://hl7.org/fhir/us/qicore/StructureDefinition/qicore-encounter"]},"status":"finished","class":{"system":"http://terminology.hl7.org/CodeSystem/v3-ActCode","code":"IMP","display":"inpatient encounter"},"type":[{"coding":[{"system":"http://snomed.info/sct","code":"32485007"}]}],"subject":{"reference":"Patient/53e176e2-42f5-4c27-a1fe-23a280982bde"},"period":{"start":"2025-08-21T00:00:00+00:00","end":"2025-12-18T23:59:00+00:00"},"length":{"value":119,"unit":"days"},"diagnosis":[{"condition":{"reference":"Condition/ischemic-stroke-7d48"},"use":{"coding":[{"system":"http://terminology.hl7.org/CodeSystem/diagnosis-role","code":"billing","display":"Billing"}]},"rank":1}]},"request":{"method":"PUT","url":"Encounter/fa5ff179-7716-47b1-9806-a2df1af9e147"}},{"fullUrl":"https://madie.cms.gov/Coverage/5e20a3721c76ba6c5896ec21","resource":{"resourceType":"Coverage","id":"a260a2ad-b437-440c-888b-a8c9c2f15243","status":"active","beneficiary":{"reference":"Patient/53e176e2-42f5-4c27-a1fe-23a280982bde"},"period":{"start":"1994-08-20T07:00:00+00:00"},"payor":[{"reference":"Organization/41c75c00-82d9-4ab2-98f6-cfaf7fc3381d"}]},"request":{"method":"PUT","url":"Coverage/a260a2ad-b437-440c-888b-a8c9c2f15243"}},{"fullUrl":"https://madie.cms.gov/Condition/ischemic-stroke-7d47","resource":{"resourceType":"Condition","id":"3b0e739a-3c50-40de-8767-25d98110d37f","meta":{"profile":["http://hl7.org/fhir/us/qicore/StructureDefinition/qicore-condition"]},"clinicalStatus":{"coding":[{"system":"http://terminology.hl7.org/CodeSystem/condition-clinical","code":"active"}]},"verificationStatus":{"coding":[{"system":"http://terminology.hl7.org/CodeSystem/condition-ver-status","code":"confirmed"}]},"category":[{"coding":[{"system":"http://terminology.hl7.org/CodeSystem/condition-category","code":"encounter-diagnosis","display":"Encounter Diagnosis"}]}],"code":{"coding":[{"system":"http://snomed.info/sct","version":"2020-09","code":"111297002","display":"Nonparalytic stroke (disorder)","userSelected":true}]},"subject":{"reference":"Patient/53e176e2-42f5-4c27-a1fe-23a280982bde"},"recordedDate":"2025-08-16T08:00:00.000+00:00"},"request":{"method":"PUT","url":"Condition/3b0e739a-3c50-40de-8767-25d98110d37f"}},{"fullUrl":"https://madie.cms.gov/Condition/ischemic-stroke-7d48","resource":{"resourceType":"Condition","id":"a6bcb95c-0b3b-4ef6-95cf-18fad120b29a","meta":{"profile":["http://hl7.org/fhir/us/qicore/StructureDefinition/qicore-condition"]},"clinicalStatus":{"coding":[{"system":"http://terminology.hl7.org/CodeSystem/condition-clinical","code":"active"}]},"verificationStatus":{"coding":[{"system":"http://terminology.hl7.org/CodeSystem/condition-ver-status","code":"confirmed"}]},"category":[{"coding":[{"system":"http://terminology.hl7.org/CodeSystem/condition-category","code":"encounter-diagnosis","display":"Encounter Diagnosis"}]}],"code":{"coding":[{"system":"http://snomed.info/sct","version":"2020-09","code":"111297002","display":"Nonparalytic stroke (disorder)","userSelected":true}]},"subject":{"reference":"Patient/53e176e2-42f5-4c27-a1fe-23a280982bde"},"recordedDate":"2025-08-16T08:00:00.000+00:00"},"request":{"method":"PUT","url":"Condition/a6bcb95c-0b3b-4ef6-95cf-18fad120b29a"}},{"fullUrl":"https://madie.cms.gov/Organization/123456","resource":{"resourceType":"Organization","id":"41c75c00-82d9-4ab2-98f6-cfaf7fc3381d","meta":{"profile":["http://hl7.org/fhir/us/qicore/StructureDefinition/qicore-organization"]},"identifier":[{"use":"temp","system":"urn:oid:2.16.840.1.113883.4.4","value":"21-3259825"}],"active":true,"type":[{"coding":[{"system":"http://terminology.hl7.org/CodeSystem/organization-type","code":"pay","display":"Payer"}]}],"name":"Blue Cross Blue Shield of Texas","telecom":[{"system":"phone","value":"(+1) 972-766-6900"}],"address":[{"use":"billing","type":"postal","line":["P.O. Box 660044"],"city":"Dallas","state":"TX","postalCode":"75266-0044","country":"USA"}]},"request":{"method":"PUT","url":"Organization/41c75c00-82d9-4ab2-98f6-cfaf7fc3381d"}},{"fullUrl":"https://madie.cms.gov/Practitioner/practitioner-123456","resource":{"resourceType":"Practitioner","id":"c9601add-ff43-4a88-81cf-a7c8e544b318","identifier":[{"system":"http://hl7.org/fhir/sid/us-npi","value":"123456"}],"name":[{"family":"Evil","prefix":["Dr"]}]},"request":{"method":"PUT","url":"Practitioner/c9601add-ff43-4a88-81cf-a7c8e544b318"}},{"fullUrl":"https://madie.cms.gov/MeasureReport/28536e7c-a58c-4de2-84c8-a4a9af5adfc8","resource":{"resourceType":"MeasureReport","id":"28536e7c-a58c-4de2-84c8-a4a9af5adfc8","meta":{"profile":["http://hl7.org/fhir/us/cqfmeasures/StructureDefinition/test-case-cqfm"]},"contained":[{"resourceType":"Parameters","id":"366304ed-b323-44b2-b3d8-58744544158d-parameters","parameter":[{"name":"subject","valueString":"53e176e2-42f5-4c27-a1fe-23a280982bde"}]}],"extension":[{"url":"http://hl7.org/fhir/us/cqfmeasures/StructureDefinition/cqfm-inputParameters","valueReference":{"reference":"#366304ed-b323-44b2-b3d8-58744544158d-parameters"}},{"url":"http://hl7.org/fhir/us/cqfmeasures/StructureDefinition/cqfm-testCaseDescription","valueMarkdown":"EncPrinDx=IschemicStroke LOS<120. Testing multiple occurrences\n"}],"modifierExtension":[{"url":"http://hl7.org/fhir/us/cqfmeasures/StructureDefinition/cqfm-isTestCase","valueBoolean":true}],"status":"complete","type":"individual","measure":"https://madie.cms.gov/Measure/AntithromboticTherapyByEndofHospitalDay2FHIR","period":{"start":"2025-01-01","end":"2025-12-31"},"group":[{"population":[{"code":{"coding":[{"system":"http://terminology.hl7.org/CodeSystem/measure-population","code":"initial-population","display":"Initial Population"}]},"count":1},{"code":{"coding":[{"system":"http://terminology.hl7.org/CodeSystem/measure-population","code":"denominator","display":"Denominator"}]},"count":1},{"code":{"coding":[{"system":"http://terminology.hl7.org/CodeSystem/measure-population","code":"denominator-exclusion","display":"Denominator Exclusion"}]},"count":0},{"code":{"coding":[{"system":"http://terminology.hl7.org/CodeSystem/measure-population","code":"numerator","display":"Numerator"}]},"count":0},{"code":{"coding":[{"system":"http://terminology.hl7.org/CodeSystem/measure-population","code":"denominator-exception","display":"Denominator Exception"}]},"count":0}]}]},"request":{"method":"PUT","url":"MeasureReport/28536e7c-a58c-4de2-84c8-a4a9af5adfc8"}}]}