{"resourceType":"Bundle","id":"tests-152dd69a-9bdb-4d12-83ef-c1552a45abca-bundle","type":"transaction","entry":[{"fullUrl":"https://madie.cms.gov/Patient/152dd69a-9bdb-4d12-83ef-c1552a45abca","resource":{"resourceType":"Patient","id":"152dd69a-9bdb-4d12-83ef-c1552a45abca","meta":{"profile":["http://hl7.org/fhir/us/qicore/StructureDefinition/qicore-patient"]},"text":{"status":"generated","div":"<div xmlns=\"http://www.w3.org/1999/xhtml\"><div class=\"hapiHeaderText\">FailAllNoSTK <b>IPPFAIL </b></div><table class=\"hapiPropertyTable\"><tbody><tr><td>Identifier</td><td>9dd0a99db88099b7782887910f1740bb</td></tr><tr><td>Date of birth</td><td><span>21 August 1994</span></td></tr></tbody></table></div>"},"extension":[{"url":"http://hl7.org/fhir/us/core/StructureDefinition/us-core-race","extension":[{"url":"ombCategory","valueCoding":{"system":"urn:oid:2.16.840.1.113883.6.238","code":"2028-9","display":"Asian","userSelected":true}},{"url":"text","valueString":"Asian"}]},{"url":"http://hl7.org/fhir/us/core/StructureDefinition/us-core-ethnicity","extension":[{"url":"ombCategory","valueCoding":{"system":"urn:oid:2.16.840.1.113883.6.238","code":"2186-5","display":"Not Hispanic or Latino","userSelected":true}},{"url":"text","valueString":"Not Hispanic or Latino"}]}],"identifier":[{"type":{"coding":[{"system":"http://terminology.hl7.org/CodeSystem/v2-0203","code":"MR"}]},"system":"https://bonnie-fhir.healthit.gov/","value":"60f82c2d98086b570510e251"}],"active":true,"name":[{"use":"usual","family":"IPPFail","given":["FailAllNoSTK"]}],"gender":"female","birthDate":"1994-08-21"},"request":{"method":"PUT","url":"Patient/152dd69a-9bdb-4d12-83ef-c1552a45abca"}},{"fullUrl":"https://madie.cms.gov/Encounter/5c954892b848462de0ae61a3","resource":{"resourceType":"Encounter","id":"c4c48219-861e-4894-bd30-92b3615693b6","meta":{"profile":["http://hl7.org/fhir/us/qicore/StructureDefinition/qicore-encounter"]},"status":"finished","class":{"system":"http://terminology.hl7.org/CodeSystem/v3-ActCode","code":"IMP","display":"inpatient encounter"},"type":[{"coding":[{"system":"http://snomed.info/sct","code":"32485007"}]}],"subject":{"reference":"Patient/152dd69a-9bdb-4d12-83ef-c1552a45abca"},"period":{"start":"2025-08-21T09:30:00+00:00","end":"2025-12-19T10:30:00+00:00"},"length":{"value":120.0,"unit":"days"}},"request":{"method":"PUT","url":"Encounter/c4c48219-861e-4894-bd30-92b3615693b6"}},{"fullUrl":"https://madie.cms.gov/Coverage/5e20a3661c76ba6c5896ebb4","resource":{"resourceType":"Coverage","id":"060f168f-78f0-4f9c-96ee-67dee017f9a9","status":"active","beneficiary":{"reference":"Patient/152dd69a-9bdb-4d12-83ef-c1552a45abca"},"period":{"start":"1994-08-21T07:00:00+00:00"},"payor":[{"reference":"Organization/4b5a882f-1f43-485c-85c6-f5ad2337d5b1"}]},"request":{"method":"PUT","url":"Coverage/060f168f-78f0-4f9c-96ee-67dee017f9a9"}},{"fullUrl":"https://madie.cms.gov/Organization/123456","resource":{"resourceType":"Organization","id":"4b5a882f-1f43-485c-85c6-f5ad2337d5b1","meta":{"profile":["http://hl7.org/fhir/us/qicore/StructureDefinition/qicore-organization"]},"identifier":[{"use":"temp","system":"urn:oid:2.16.840.1.113883.4.4","value":"21-3259825"}],"active":true,"type":[{"coding":[{"system":"http://terminology.hl7.org/CodeSystem/organization-type","code":"pay","display":"Payer"}]}],"name":"Blue Cross Blue Shield of Texas","telecom":[{"system":"phone","value":"(+1) 972-766-6900"}],"address":[{"use":"billing","type":"postal","line":["P.O. Box 660044"],"city":"Dallas","state":"TX","postalCode":"75266-0044","country":"USA"}]},"request":{"method":"PUT","url":"Organization/4b5a882f-1f43-485c-85c6-f5ad2337d5b1"}},{"fullUrl":"https://madie.cms.gov/Practitioner/practitioner-123456","resource":{"resourceType":"Practitioner","id":"86876406-63fe-4ac2-a7ab-b82e89cb0ac2","identifier":[{"system":"http://hl7.org/fhir/sid/us-npi","value":"123456"}],"name":[{"family":"Evil","prefix":["Dr"]}]},"request":{"method":"PUT","url":"Practitioner/86876406-63fe-4ac2-a7ab-b82e89cb0ac2"}},{"fullUrl":"https://madie.cms.gov/MeasureReport/9cf001a9-d607-453f-a537-24aeb492d7cd","resource":{"resourceType":"MeasureReport","id":"9cf001a9-d607-453f-a537-24aeb492d7cd","meta":{"profile":["http://hl7.org/fhir/us/cqfmeasures/StructureDefinition/test-case-cqfm"]},"contained":[{"resourceType":"Parameters","id":"a49acda0-4e72-4071-a968-d21d23a4f83d-parameters","parameter":[{"name":"subject","valueString":"152dd69a-9bdb-4d12-83ef-c1552a45abca"}]}],"extension":[{"url":"http://hl7.org/fhir/us/cqfmeasures/StructureDefinition/cqfm-inputParameters","valueReference":{"reference":"#a49acda0-4e72-4071-a968-d21d23a4f83d-parameters"}},{"url":"http://hl7.org/fhir/us/cqfmeasures/StructureDefinition/cqfm-testCaseDescription","valueMarkdown":" no principal diagnosis of stroke (ischemic or hemorrhagic)\n"}],"modifierExtension":[{"url":"http://hl7.org/fhir/us/cqfmeasures/StructureDefinition/cqfm-isTestCase","valueBoolean":true}],"status":"complete","type":"individual","measure":"https://madie.cms.gov/Measure/AntithromboticTherapyByEndofHospitalDay2FHIR","period":{"start":"2025-01-01","end":"2025-12-31"},"group":[{"population":[{"code":{"coding":[{"system":"http://terminology.hl7.org/CodeSystem/measure-population","code":"initial-population","display":"Initial Population"}]},"count":0},{"code":{"coding":[{"system":"http://terminology.hl7.org/CodeSystem/measure-population","code":"denominator","display":"Denominator"}]},"count":0},{"code":{"coding":[{"system":"http://terminology.hl7.org/CodeSystem/measure-population","code":"denominator-exclusion","display":"Denominator Exclusion"}]},"count":0},{"code":{"coding":[{"system":"http://terminology.hl7.org/CodeSystem/measure-population","code":"numerator","display":"Numerator"}]},"count":0},{"code":{"coding":[{"system":"http://terminology.hl7.org/CodeSystem/measure-population","code":"denominator-exception","display":"Denominator Exception"}]},"count":0}]}]},"request":{"method":"PUT","url":"MeasureReport/9cf001a9-d607-453f-a537-24aeb492d7cd"}}]}