{"resourceType":"Bundle","id":"tests-4a73b8d0-f36f-4d55-8b4c-fc34f94e9c5d-bundle","type":"transaction","entry":[{"fullUrl":"https://madie.cms.gov/Patient/4a73b8d0-f36f-4d55-8b4c-fc34f94e9c5d","resource":{"resourceType":"Patient","id":"4a73b8d0-f36f-4d55-8b4c-fc34f94e9c5d","meta":{"profile":["http://hl7.org/fhir/us/qicore/StructureDefinition/qicore-patient"]},"text":{"status":"generated","div":"<div xmlns=\"http://www.w3.org/1999/xhtml\"><div class=\"hapiHeaderText\">MedAdmMedReason_eq1dayduringEncIPTestOccurr <b>DENEXCEPPASS </b></div><table class=\"hapiPropertyTable\"><tbody><tr><td>Identifier</td><td>a6f00645f14239ac325a9a8aa737c7f66717d55882b8c9b28807040b78c6d279</td></tr><tr><td>Date of birth</td><td><span>26 September 1975</span></td></tr></tbody></table></div>"},"extension":[{"url":"http://hl7.org/fhir/us/core/StructureDefinition/us-core-race","extension":[{"url":"ombCategory","valueCoding":{"system":"urn:oid:2.16.840.1.113883.6.238","code":"2054-5","display":"Black or African American","userSelected":true}},{"url":"text","valueString":"Black or African American"}]},{"url":"http://hl7.org/fhir/us/core/StructureDefinition/us-core-ethnicity","extension":[{"url":"ombCategory","valueCoding":{"system":"urn:oid:2.16.840.1.113883.6.238","code":"2186-5","display":"Not Hispanic or Latino","userSelected":true}},{"url":"text","valueString":"Not Hispanic or Latino"}]}],"identifier":[{"type":{"coding":[{"system":"http://terminology.hl7.org/CodeSystem/v2-0203","code":"MR"}]},"system":"https://bonnie-fhir.healthit.gov/","value":"60f82c2f98086b570510e2bd"}],"active":true,"name":[{"use":"usual","family":"DENEXCEPPass","given":["MedAdmMedReason_eq1dayduringEncIPTestOccurr"]}],"gender":"female","birthDate":"1975-09-26"},"request":{"method":"PUT","url":"Patient/4a73b8d0-f36f-4d55-8b4c-fc34f94e9c5d"}},{"fullUrl":"https://madie.cms.gov/Encounter/5ca4c092b8484613a555291e","resource":{"resourceType":"Encounter","id":"5ca4c092b8484613a555291e","meta":{"profile":["http://hl7.org/fhir/us/qicore/StructureDefinition/qicore-encounter"]},"status":"finished","class":{"system":"http://terminology.hl7.org/CodeSystem/v3-ActCode","code":"IMP","display":"inpatient encounter","userSelected":true},"type":[{"coding":[{"system":"http://snomed.info/sct","code":"183452005"}]}],"subject":{"reference":"Patient/4a73b8d0-f36f-4d55-8b4c-fc34f94e9c5d"},"period":{"start":"2025-10-09T09:00:00.000+00:00","end":"2025-10-09T11:15:00.000+00:00"},"length":{"value":0.0,"unit":"days"}},"request":{"method":"PUT","url":"Encounter/5ca4c092b8484613a555291e"}},{"fullUrl":"https://madie.cms.gov/Encounter/5ca4c092b8484613a555291f","resource":{"resourceType":"Encounter","id":"5ca4c092b8484613a555291f","meta":{"profile":["http://hl7.org/fhir/us/qicore/StructureDefinition/qicore-encounter"]},"status":"finished","class":{"system":"http://terminology.hl7.org/CodeSystem/v3-ActCode","code":"IMP","display":"inpatient encounter","userSelected":true},"type":[{"coding":[{"system":"http://snomed.info/sct","code":"32485007"}]}],"subject":{"reference":"Patient/4a73b8d0-f36f-4d55-8b4c-fc34f94e9c5d"},"period":{"start":"2025-10-10T09:00:00.000+00:00","end":"2025-10-12T11:15:00.000+00:00"},"length":{"value":2.0,"unit":"days"},"diagnosis":[{"condition":{"reference":"Condition/ischemic-stroke-9783"},"use":{"coding":[{"system":"http://snomed.info/sct","code":"111297002","display":"Ischemic Stroke"}]},"rank":1}]},"request":{"method":"PUT","url":"Encounter/5ca4c092b8484613a555291f"}},{"fullUrl":"https://madie.cms.gov/MedicationAdministration/5ca4c092b8484613a5552920","resource":{"resourceType":"MedicationAdministration","id":"5ca4c092b8484613a5552920","meta":{"profile":["http://hl7.org/fhir/us/qicore/StructureDefinition/qicore-mednotadministered"]},"extension":[{"url":"http://hl7.org/fhir/us/qicore/StructureDefinition/qicore-recorded","valueDateTime":"2025-10-11T09:00:00+00:00"}],"status":"not-done","statusReason":[{"coding":[{"system":"http://snomed.info/sct","code":"183932001","display":"Procedure contraindicated (situation)"}]}],"medicationCodeableConcept":{"coding":[{"system":"http://www.nlm.nih.gov/research/umls/rxnorm","code":"198466"},{"system":"http://www.nlm.nih.gov/research/umls/rxnorm","code":"1037045"}]},"subject":{"reference":"Patient/4a73b8d0-f36f-4d55-8b4c-fc34f94e9c5d"},"effectivePeriod":{"start":"2025-10-11T09:00:00+00:00"}},"request":{"method":"PUT","url":"MedicationAdministration/5ca4c092b8484613a5552920"}},{"fullUrl":"https://madie.cms.gov/Coverage/5e20a3721c76ba6c5896ec20","resource":{"resourceType":"Coverage","id":"5e20a3721c76ba6c5896ec20","status":"active","beneficiary":{"reference":"Patient/4a73b8d0-f36f-4d55-8b4c-fc34f94e9c5d"},"period":{"start":"1975-09-26T08:00:00+00:00"},"payor":[{"reference":"Organization/Org-123456"}]},"request":{"method":"PUT","url":"Coverage/5e20a3721c76ba6c5896ec20"}},{"fullUrl":"https://madie.cms.gov/Condition/ischemic-stroke-9782","resource":{"resourceType":"Condition","id":"ischemic-stroke-9782","meta":{"profile":["http://hl7.org/fhir/us/qicore/StructureDefinition/qicore-condition"]},"clinicalStatus":{"coding":[{"system":"http://terminology.hl7.org/CodeSystem/condition-clinical","code":"active"}]},"verificationStatus":{"coding":[{"system":"http://terminology.hl7.org/CodeSystem/condition-ver-status","code":"confirmed"}]},"category":[{"coding":[{"system":"http://terminology.hl7.org/CodeSystem/condition-category","code":"encounter-diagnosis","display":"Encounter Diagnosis"}]}],"code":{"coding":[{"system":"http://snomed.info/sct","version":"2020-09","code":"111297002","display":"Nonparalytic stroke (disorder)","userSelected":true}]},"subject":{"reference":"Patient/4a73b8d0-f36f-4d55-8b4c-fc34f94e9c5d"},"recordedDate":"2022-08-05T08:00:00.000+00:00"},"request":{"method":"PUT","url":"Condition/ischemic-stroke-9782"}},{"fullUrl":"https://madie.cms.gov/Condition/ischemic-stroke-9783","resource":{"resourceType":"Condition","id":"ischemic-stroke-9783","meta":{"profile":["http://hl7.org/fhir/us/qicore/StructureDefinition/qicore-condition"]},"clinicalStatus":{"coding":[{"system":"http://terminology.hl7.org/CodeSystem/condition-clinical","code":"active"}]},"verificationStatus":{"coding":[{"system":"http://terminology.hl7.org/CodeSystem/condition-ver-status","code":"confirmed"}]},"category":[{"coding":[{"system":"http://terminology.hl7.org/CodeSystem/condition-category","code":"encounter-diagnosis","display":"Encounter Diagnosis"}]}],"code":{"coding":[{"system":"http://snomed.info/sct","version":"2020-09","code":"111297002","display":"Nonparalytic stroke (disorder)","userSelected":true}]},"subject":{"reference":"Patient/4a73b8d0-f36f-4d55-8b4c-fc34f94e9c5d"},"recordedDate":"2022-08-05T08:00:00.000+00:00"},"request":{"method":"PUT","url":"Condition/ischemic-stroke-9783"}},{"fullUrl":"https://madie.cms.gov/Organization/123456","resource":{"resourceType":"Organization","id":"Org-123456","meta":{"profile":["http://hl7.org/fhir/us/qicore/StructureDefinition/qicore-organization"]},"identifier":[{"use":"temp","system":"urn:oid:2.16.840.1.113883.4.4","value":"21-3259825"}],"active":true,"type":[{"coding":[{"system":"http://terminology.hl7.org/CodeSystem/organization-type","code":"pay","display":"Payer"}]}],"name":"Blue Cross Blue Shield of Texas","telecom":[{"system":"phone","value":"(+1) 972-766-6900"}],"address":[{"use":"billing","type":"postal","line":["P.O. Box 660044"],"city":"Dallas","state":"TX","postalCode":"75266-0044","country":"USA"}]},"request":{"method":"PUT","url":"Organization/Org-123456"}},{"fullUrl":"https://madie.cms.gov/MeasureReport/8bd63773-f812-42c5-85e0-e94180b3e285","resource":{"resourceType":"MeasureReport","id":"8bd63773-f812-42c5-85e0-e94180b3e285","meta":{"profile":["http://hl7.org/fhir/us/cqfmeasures/StructureDefinition/test-case-cqfm"]},"contained":[{"resourceType":"Parameters","id":"0c6eb53b-0332-49b7-a443-6e5ab18ff66d-parameters","parameter":[{"name":"subject","valueString":"4a73b8d0-f36f-4d55-8b4c-fc34f94e9c5d"}]}],"extension":[{"url":"http://hl7.org/fhir/us/cqfmeasures/StructureDefinition/cqfm-inputParameters","valueReference":{"reference":"#0c6eb53b-0332-49b7-a443-6e5ab18ff66d-parameters"}},{"url":"http://hl7.org/fhir/us/cqfmeasures/StructureDefinition/cqfm-testCaseDescription","valueMarkdown":"antithrombotic not done due to medical reason = 1 day after IP encounter starts AND NOT ED visit. Testing 2 IP encounters.\n"}],"modifierExtension":[{"url":"http://hl7.org/fhir/us/cqfmeasures/StructureDefinition/cqfm-isTestCase","valueBoolean":true}],"status":"complete","type":"individual","measure":"https://madie.cms.gov/Measure/AntithromboticTherapyByEndofHospitalDay2FHIR","period":{"start":"2025-01-01","end":"2025-12-31"},"group":[{"population":[{"code":{"coding":[{"system":"http://terminology.hl7.org/CodeSystem/measure-population","code":"initial-population","display":"Initial Population"}]},"count":1},{"code":{"coding":[{"system":"http://terminology.hl7.org/CodeSystem/measure-population","code":"denominator","display":"Denominator"}]},"count":1},{"code":{"coding":[{"system":"http://terminology.hl7.org/CodeSystem/measure-population","code":"denominator-exclusion","display":"Denominator Exclusion"}]},"count":0},{"code":{"coding":[{"system":"http://terminology.hl7.org/CodeSystem/measure-population","code":"numerator","display":"Numerator"}]},"count":0},{"code":{"coding":[{"system":"http://terminology.hl7.org/CodeSystem/measure-population","code":"denominator-exception","display":"Denominator Exception"}]},"count":1}]}],"evaluatedResource":[{"reference":"Patient/4a73b8d0-f36f-4d55-8b4c-fc34f94e9c5d"},{"reference":"Encounter/5ca4c092b8484613a555291e"},{"reference":"Encounter/5ca4c092b8484613a555291f"},{"reference":"MedicationAdministration/5ca4c092b8484613a5552920"},{"reference":"Coverage/5e20a3721c76ba6c5896ec20"},{"reference":"Condition/ischemic-stroke-9782"},{"reference":"Condition/ischemic-stroke-9783"},{"reference":"Organization/Org-123456"}]},"request":{"method":"PUT","url":"MeasureReport/8bd63773-f812-42c5-85e0-e94180b3e285"}}]}