{"resourceType":"Bundle","id":"tests-a5feebb4-d3c0-4435-aed5-9579b75a8a52-bundle","type":"transaction","entry":[{"fullUrl":"https://madie.cms.gov/Patient/a5feebb4-d3c0-4435-aed5-9579b75a8a52","resource":{"resourceType":"Patient","id":"a5feebb4-d3c0-4435-aed5-9579b75a8a52","meta":{"profile":["http://hl7.org/fhir/us/qicore/StructureDefinition/qicore-patient"]},"text":{"status":"generated","div":"<div xmlns=\"http://www.w3.org/1999/xhtml\"><div class=\"hapiHeaderText\">LOS=2DaysNoED <b>DENEXFAIL </b></div><table class=\"hapiPropertyTable\"><tbody><tr><td>Identifier</td><td>6983b1628854f0699e341e1d182d73e4</td></tr><tr><td>Date of birth</td><td><span>20 August 1994</span></td></tr></tbody></table></div>"},"extension":[{"url":"http://hl7.org/fhir/us/core/StructureDefinition/us-core-race","extension":[{"url":"ombCategory","valueCoding":{"system":"urn:oid:2.16.840.1.113883.6.238","code":"1002-5","display":"American Indian or Alaska Native","userSelected":true}},{"url":"text","valueString":"American Indian or Alaska Native"}]},{"url":"http://hl7.org/fhir/us/core/StructureDefinition/us-core-ethnicity","extension":[{"url":"ombCategory","valueCoding":{"system":"urn:oid:2.16.840.1.113883.6.238","code":"2135-2","display":"Hispanic or Latino","userSelected":true}},{"url":"text","valueString":"Hispanic or Latino"}]}],"identifier":[{"type":{"coding":[{"system":"http://terminology.hl7.org/CodeSystem/v2-0203","code":"MR"}]},"system":"https://bonnie-fhir.healthit.gov/","value":"60f82c2d98086b570510e255"}],"active":true,"name":[{"use":"usual","family":"DENEXFail","given":["LOS=2DaysNoED"]}],"gender":"male","birthDate":"1994-08-20"},"request":{"method":"PUT","url":"Patient/a5feebb4-d3c0-4435-aed5-9579b75a8a52"}},{"fullUrl":"https://madie.cms.gov/Encounter/5c954892b848462de0ae61b2","resource":{"resourceType":"Encounter","id":"093c0a8c-9822-40d1-ae52-046c98d92ac2","meta":{"profile":["http://hl7.org/fhir/us/qicore/StructureDefinition/qicore-encounter"]},"status":"finished","class":{"system":"http://terminology.hl7.org/CodeSystem/v3-ActCode","code":"IMP","display":"inpatient encounter","userSelected":true},"type":[{"coding":[{"system":"http://snomed.info/sct","code":"32485007"}]}],"subject":{"reference":"Patient/a5feebb4-d3c0-4435-aed5-9579b75a8a52"},"period":{"start":"2025-08-21T00:00:00+00:00","end":"2025-08-23T12:00:00+00:00"},"length":{"value":2,"unit":"days"},"diagnosis":[{"condition":{"reference":"Condition/ischemic-stroke-823f"},"use":{"coding":[{"system":"http://terminology.hl7.org/CodeSystem/diagnosis-role","code":"billing","display":"Billing"}]},"rank":1}]},"request":{"method":"PUT","url":"Encounter/093c0a8c-9822-40d1-ae52-046c98d92ac2"}},{"fullUrl":"https://madie.cms.gov/Coverage/5e20a3661c76ba6c5896ebb8","resource":{"resourceType":"Coverage","id":"f4520742-ac67-4df3-b64d-be9c79ff5de7","status":"active","beneficiary":{"reference":"Patient/a5feebb4-d3c0-4435-aed5-9579b75a8a52"},"period":{"start":"1994-08-20T07:00:00+00:00"},"payor":[{"reference":"Organization/4b5a882f-1f43-485c-85c6-f5ad2337d5b1"}]},"request":{"method":"PUT","url":"Coverage/f4520742-ac67-4df3-b64d-be9c79ff5de7"}},{"fullUrl":"https://madie.cms.gov/Condition/ischemic-stroke-823f","resource":{"resourceType":"Condition","id":"5a75eac2-08d8-4d9e-8547-9ffe21b83bf7","meta":{"profile":["http://hl7.org/fhir/us/qicore/StructureDefinition/qicore-condition"]},"clinicalStatus":{"coding":[{"system":"http://terminology.hl7.org/CodeSystem/condition-clinical","code":"active"}]},"verificationStatus":{"coding":[{"system":"http://terminology.hl7.org/CodeSystem/condition-ver-status","code":"confirmed"}]},"category":[{"coding":[{"system":"http://terminology.hl7.org/CodeSystem/condition-category","code":"encounter-diagnosis","display":"Encounter Diagnosis"}]}],"code":{"coding":[{"system":"http://snomed.info/sct","version":"2020-09","code":"111297002","display":"Nonparalytic stroke (disorder)","userSelected":true}]},"subject":{"reference":"Patient/a5feebb4-d3c0-4435-aed5-9579b75a8a52"},"recordedDate":"2025-08-12T08:00:00.000+00:00"},"request":{"method":"PUT","url":"Condition/5a75eac2-08d8-4d9e-8547-9ffe21b83bf7"}},{"fullUrl":"https://madie.cms.gov/Organization/123456","resource":{"resourceType":"Organization","id":"4b5a882f-1f43-485c-85c6-f5ad2337d5b1","meta":{"profile":["http://hl7.org/fhir/us/qicore/StructureDefinition/qicore-organization"]},"identifier":[{"use":"temp","system":"urn:oid:2.16.840.1.113883.4.4","value":"21-3259825"}],"active":true,"type":[{"coding":[{"system":"http://terminology.hl7.org/CodeSystem/organization-type","code":"pay","display":"Payer"}]}],"name":"Blue Cross Blue Shield of Texas","telecom":[{"system":"phone","value":"(+1) 972-766-6900"}],"address":[{"use":"billing","type":"postal","line":["P.O. Box 660044"],"city":"Dallas","state":"TX","postalCode":"75266-0044","country":"USA"}]},"request":{"method":"PUT","url":"Organization/4b5a882f-1f43-485c-85c6-f5ad2337d5b1"}},{"fullUrl":"https://madie.cms.gov/MeasureReport/b8b03536-29ce-4e32-8173-b303c04ab427","resource":{"resourceType":"MeasureReport","id":"b8b03536-29ce-4e32-8173-b303c04ab427","meta":{"profile":["http://hl7.org/fhir/us/cqfmeasures/StructureDefinition/test-case-cqfm"]},"contained":[{"resourceType":"Parameters","id":"25739308-15c7-44d2-b4fe-0a0ca5230d86-parameters","parameter":[{"name":"subject","valueString":"a5feebb4-d3c0-4435-aed5-9579b75a8a52"}]}],"extension":[{"url":"http://hl7.org/fhir/us/cqfmeasures/StructureDefinition/cqfm-inputParameters","valueReference":{"reference":"#25739308-15c7-44d2-b4fe-0a0ca5230d86-parameters"}},{"url":"http://hl7.org/fhir/us/cqfmeasures/StructureDefinition/cqfm-testCaseDescription","valueMarkdown":"\"Patient has LOS = 2 days AND without an ED Visit , \nglobal.Hospitalization( =Enc IP)\"\n"}],"modifierExtension":[{"url":"http://hl7.org/fhir/us/cqfmeasures/StructureDefinition/cqfm-isTestCase","valueBoolean":true}],"status":"complete","type":"individual","measure":"https://madie.cms.gov/Measure/AntithromboticTherapyByEndofHospitalDay2FHIR","period":{"start":"2025-01-01","end":"2025-12-31"},"group":[{"population":[{"code":{"coding":[{"system":"http://terminology.hl7.org/CodeSystem/measure-population","code":"initial-population","display":"Initial Population"}]},"count":1},{"code":{"coding":[{"system":"http://terminology.hl7.org/CodeSystem/measure-population","code":"denominator","display":"Denominator"}]},"count":1},{"code":{"coding":[{"system":"http://terminology.hl7.org/CodeSystem/measure-population","code":"denominator-exclusion","display":"Denominator Exclusion"}]},"count":0},{"code":{"coding":[{"system":"http://terminology.hl7.org/CodeSystem/measure-population","code":"numerator","display":"Numerator"}]},"count":0},{"code":{"coding":[{"system":"http://terminology.hl7.org/CodeSystem/measure-population","code":"denominator-exception","display":"Denominator Exception"}]},"count":0}]}]},"request":{"method":"PUT","url":"MeasureReport/b8b03536-29ce-4e32-8173-b303c04ab427"}}]}