{"resourceType":"Bundle","id":"tests-1b785f3f-23e7-4b52-889c-d9f66945e7f1-bundle","type":"transaction","entry":[{"fullUrl":"https://madie.cms.gov/Patient/1b785f3f-23e7-4b52-889c-d9f66945e7f1","resource":{"resourceType":"Patient","id":"1b785f3f-23e7-4b52-889c-d9f66945e7f1","meta":{"profile":["http://hl7.org/fhir/us/qicore/StructureDefinition/qicore-patient"]},"text":{"status":"generated","div":"<div xmlns=\"http://www.w3.org/1999/xhtml\"><div class=\"hapiHeaderText\">CMO&lt;1day_DuringEncIP <b>DENEXPASS </b></div><table class=\"hapiPropertyTable\"><tbody><tr><td>Identifier</td><td>d9671613ad13fc4c07e2f7a63a584374</td></tr><tr><td>Date of birth</td><td><span>26 September 1975</span></td></tr></tbody></table></div>"},"extension":[{"url":"http://hl7.org/fhir/us/core/StructureDefinition/us-core-race","extension":[{"url":"ombCategory","valueCoding":{"system":"urn:oid:2.16.840.1.113883.6.238","code":"2054-5","display":"Black or African American","userSelected":true}},{"url":"text","valueString":"Black or African American"}]},{"url":"http://hl7.org/fhir/us/core/StructureDefinition/us-core-ethnicity","extension":[{"url":"ombCategory","valueCoding":{"system":"urn:oid:2.16.840.1.113883.6.238","code":"2186-5","display":"Not Hispanic or Latino","userSelected":true}},{"url":"text","valueString":"Not Hispanic or Latino"}]}],"identifier":[{"type":{"coding":[{"system":"http://terminology.hl7.org/CodeSystem/v2-0203","code":"MR"}]},"system":"https://bonnie-fhir.healthit.gov/","value":"60f82c2e98086b570510e28b"}],"active":true,"name":[{"use":"usual","family":"DENEXPass","given":["CMO<1day_DuringEncIP"]}],"gender":"female","birthDate":"1975-09-26"},"request":{"method":"PUT","url":"Patient/1b785f3f-23e7-4b52-889c-d9f66945e7f1"}},{"fullUrl":"https://madie.cms.gov/Encounter/5c954893b848462de0ae6264","resource":{"resourceType":"Encounter","id":"5c954893b848462de0ae6264","meta":{"profile":["http://hl7.org/fhir/us/qicore/StructureDefinition/qicore-encounter"]},"status":"finished","class":{"system":"http://terminology.hl7.org/CodeSystem/v3-ActCode","code":"EMER","display":"emergency","userSelected":true},"type":[{"coding":[{"system":"http://snomed.info/sct","code":"4525004"}]}],"subject":{"reference":"Patient/1b785f3f-23e7-4b52-889c-d9f66945e7f1"},"period":{"start":"2025-10-10T04:00:00+00:00","end":"2025-10-10T06:00:00+00:00"},"length":{"value":0.0,"unit":"days"}},"request":{"method":"PUT","url":"Encounter/5c954893b848462de0ae6264"}},{"fullUrl":"https://madie.cms.gov/Encounter/5c954893b848462de0ae6265","resource":{"resourceType":"Encounter","id":"5c954893b848462de0ae6265","meta":{"profile":["http://hl7.org/fhir/us/qicore/StructureDefinition/qicore-encounter"]},"status":"finished","class":{"system":"http://terminology.hl7.org/CodeSystem/v3-ActCode","code":"IMP","display":"inpatient encounter","userSelected":true},"type":[{"coding":[{"system":"http://snomed.info/sct","code":"32485007"}]}],"subject":{"reference":"Patient/1b785f3f-23e7-4b52-889c-d9f66945e7f1"},"period":{"start":"2025-10-10T06:15:00+00:00","end":"2025-10-11T11:30:00+00:00"},"length":{"value":1.0,"unit":"days"},"diagnosis":[{"condition":{"reference":"Condition/ischemic-stroke-824d"},"use":{"coding":[{"system":"http://snomed.info/sct","code":"111297002","display":"Ischemic Stroke"}]},"rank":1}]},"request":{"method":"PUT","url":"Encounter/5c954893b848462de0ae6265"}},{"fullUrl":"https://madie.cms.gov/ServiceRequest/5c954893b848462de0ae6267","resource":{"resourceType":"ServiceRequest","id":"5c954893b848462de0ae6267","meta":{"profile":["http://hl7.org/fhir/us/qicore/StructureDefinition/qicore-servicerequest"]},"status":"active","intent":"order","code":{"coding":[{"system":"http://snomed.info/sct","code":"133918004"}]},"subject":{"reference":"Patient/1b785f3f-23e7-4b52-889c-d9f66945e7f1"},"authoredOn":"2025-10-10T11:00:00+00:00"},"request":{"method":"PUT","url":"ServiceRequest/5c954893b848462de0ae6267"}},{"fullUrl":"https://madie.cms.gov/Coverage/5e20a36d1c76ba6c5896ebee","resource":{"resourceType":"Coverage","id":"5e20a36d1c76ba6c5896ebee","status":"active","beneficiary":{"reference":"Patient/1b785f3f-23e7-4b52-889c-d9f66945e7f1"},"period":{"start":"1975-09-26T08:00:00+00:00"},"payor":[{"reference":"Organization/Org-123456"}]},"request":{"method":"PUT","url":"Coverage/5e20a36d1c76ba6c5896ebee"}},{"fullUrl":"https://madie.cms.gov/Condition/ischemic-stroke-824d","resource":{"resourceType":"Condition","id":"ischemic-stroke-824d","meta":{"profile":["http://hl7.org/fhir/us/qicore/StructureDefinition/qicore-condition"]},"clinicalStatus":{"coding":[{"system":"http://terminology.hl7.org/CodeSystem/condition-clinical","code":"active"}]},"verificationStatus":{"coding":[{"system":"http://terminology.hl7.org/CodeSystem/condition-ver-status","code":"confirmed"}]},"category":[{"coding":[{"system":"http://terminology.hl7.org/CodeSystem/condition-category","code":"encounter-diagnosis","display":"Encounter Diagnosis"}]}],"code":{"coding":[{"system":"http://snomed.info/sct","version":"2020-09","code":"111297002","display":"Nonparalytic stroke (disorder)","userSelected":true}]},"subject":{"reference":"Patient/1b785f3f-23e7-4b52-889c-d9f66945e7f1"},"recordedDate":"2025-08-12T08:00:00.000+00:00"},"request":{"method":"PUT","url":"Condition/ischemic-stroke-824d"}},{"fullUrl":"https://madie.cms.gov/Organization/123456","resource":{"resourceType":"Organization","id":"Org-123456","meta":{"profile":["http://hl7.org/fhir/us/qicore/StructureDefinition/qicore-organization"]},"identifier":[{"use":"temp","system":"urn:oid:2.16.840.1.113883.4.4","value":"21-3259825"}],"active":true,"type":[{"coding":[{"system":"http://terminology.hl7.org/CodeSystem/organization-type","code":"pay","display":"Payer"}]}],"name":"Blue Cross Blue Shield of Texas","telecom":[{"system":"phone","value":"(+1) 972-766-6900"}],"address":[{"use":"billing","type":"postal","line":["P.O. Box 660044"],"city":"Dallas","state":"TX","postalCode":"75266-0044","country":"USA"}]},"request":{"method":"PUT","url":"Organization/Org-123456"}},{"fullUrl":"https://madie.cms.gov/MeasureReport/57daa639-1697-40a8-93f9-e2f083a43487","resource":{"resourceType":"MeasureReport","id":"57daa639-1697-40a8-93f9-e2f083a43487","meta":{"profile":["http://hl7.org/fhir/us/cqfmeasures/StructureDefinition/test-case-cqfm"]},"contained":[{"resourceType":"Parameters","id":"b158a518-dfda-4955-94d9-b66e4bb8f976-parameters","parameter":[{"name":"subject","valueString":"1b785f3f-23e7-4b52-889c-d9f66945e7f1"}]}],"extension":[{"url":"http://hl7.org/fhir/us/cqfmeasures/StructureDefinition/cqfm-inputParameters","valueReference":{"reference":"#b158a518-dfda-4955-94d9-b66e4bb8f976-parameters"}},{"url":"http://hl7.org/fhir/us/cqfmeasures/StructureDefinition/cqfm-testCaseDescription","valueMarkdown":"Patient receives comfort measures order CMP<1day (=0 day)   during Enc IP   global.\"Hospitalization\" =(Ed+IP)\n"}],"modifierExtension":[{"url":"http://hl7.org/fhir/us/cqfmeasures/StructureDefinition/cqfm-isTestCase","valueBoolean":true}],"status":"complete","type":"individual","measure":"https://madie.cms.gov/Measure/AntithromboticTherapyByEndofHospitalDay2FHIR","period":{"start":"2025-01-01","end":"2025-12-31"},"group":[{"population":[{"code":{"coding":[{"system":"http://terminology.hl7.org/CodeSystem/measure-population","code":"initial-population","display":"Initial Population"}]},"count":1},{"code":{"coding":[{"system":"http://terminology.hl7.org/CodeSystem/measure-population","code":"denominator","display":"Denominator"}]},"count":1},{"code":{"coding":[{"system":"http://terminology.hl7.org/CodeSystem/measure-population","code":"denominator-exclusion","display":"Denominator Exclusion"}]},"count":1},{"code":{"coding":[{"system":"http://terminology.hl7.org/CodeSystem/measure-population","code":"numerator","display":"Numerator"}]},"count":0},{"code":{"coding":[{"system":"http://terminology.hl7.org/CodeSystem/measure-population","code":"denominator-exception","display":"Denominator Exception"}]},"count":0}]}],"evaluatedResource":[{"reference":"Patient/1b785f3f-23e7-4b52-889c-d9f66945e7f1"},{"reference":"Encounter/5c954893b848462de0ae6264"},{"reference":"Encounter/5c954893b848462de0ae6265"},{"reference":"ServiceRequest/5c954893b848462de0ae6267"},{"reference":"Coverage/5e20a36d1c76ba6c5896ebee"},{"reference":"Condition/ischemic-stroke-824d"},{"reference":"Organization/Org-123456"}]},"request":{"method":"PUT","url":"MeasureReport/57daa639-1697-40a8-93f9-e2f083a43487"}}]}