{"resourceType":"Bundle","id":"tests-5450abfd-a667-4eb9-9b59-e85feed4865c-bundle","type":"transaction","entry":[{"fullUrl":"https://madie.cms.gov/Patient/5450abfd-a667-4eb9-9b59-e85feed4865c","resource":{"resourceType":"Patient","id":"5450abfd-a667-4eb9-9b59-e85feed4865c","meta":{"profile":["http://hl7.org/fhir/us/qicore/StructureDefinition/qicore-patient"]},"text":{"status":"generated","div":"<div xmlns=\"http://www.w3.org/1999/xhtml\"><div class=\"hapiHeaderText\">ProcTPA&lt;24hrB4_ED_Test_Interval <b>DENEXPASS </b></div><table class=\"hapiPropertyTable\"><tbody><tr><td>Date of birth</td><td><span>05 April 1979</span></td></tr></tbody></table></div>"},"extension":[{"url":"http://hl7.org/fhir/us/core/StructureDefinition/us-core-race","extension":[{"url":"ombCategory","valueCoding":{"system":"urn:oid:2.16.840.1.113883.6.238","code":"2106-3","display":"White","userSelected":true}},{"url":"text","valueString":"White"}]},{"url":"http://hl7.org/fhir/us/core/StructureDefinition/us-core-ethnicity","extension":[{"url":"ombCategory","valueCoding":{"system":"urn:oid:2.16.840.1.113883.6.238","code":"2186-5","display":"Not Hispanic or Latino","userSelected":true}},{"url":"text","valueString":"Not Hispanic or Latino"}]}],"identifier":[{"type":{"coding":[{"system":"http://terminology.hl7.org/CodeSystem/v2-0203","code":"MR"}]},"system":"https://bonnie-fhir.healthit.gov/","value":"60f82c3098086b570510e2cf"}],"active":true,"name":[{"use":"usual","family":"DENEXPass","given":["ProcTPA<24hrB4_ED_Test_Interval"]}],"gender":"male","birthDate":"1979-04-05"},"request":{"method":"PUT","url":"Patient/5450abfd-a667-4eb9-9b59-e85feed4865c"}},{"fullUrl":"https://madie.cms.gov/Encounter/5e78c77ed9fca500001be759","resource":{"resourceType":"Encounter","id":"41433a0a-1da7-4138-9dbc-5c5cdf7da3e6","meta":{"profile":["http://hl7.org/fhir/us/qicore/StructureDefinition/qicore-encounter"]},"status":"finished","class":{"system":"http://terminology.hl7.org/CodeSystem/v3-ActCode","code":"IMP","display":"inpatient encounter"},"type":[{"coding":[{"system":"http://snomed.info/sct","code":"183452005"}]}],"subject":{"reference":"Patient/5450abfd-a667-4eb9-9b59-e85feed4865c"},"period":{"start":"2025-03-23T08:00:00+00:00","end":"2025-03-30T07:15:00+00:00"},"diagnosis":[{"condition":{"reference":"Condition/ischemic-stroke-6d64"},"use":{"coding":[{"system":"http://terminology.hl7.org/CodeSystem/diagnosis-role","code":"billing","display":"Billing"}]},"rank":1}]},"request":{"method":"PUT","url":"Encounter/41433a0a-1da7-4138-9dbc-5c5cdf7da3e6"}},{"fullUrl":"https://madie.cms.gov/Encounter/5e78c7d7d9fca500001be779","resource":{"resourceType":"Encounter","id":"346dc256-4e7e-4993-8919-633302afb755","meta":{"profile":["http://hl7.org/fhir/us/qicore/StructureDefinition/qicore-encounter"]},"status":"finished","class":{"system":"http://terminology.hl7.org/CodeSystem/v3-ActCode","code":"EMER","display":"emergency"},"type":[{"coding":[{"system":"http://snomed.info/sct","code":"4525004"}]}],"subject":{"reference":"Patient/5450abfd-a667-4eb9-9b59-e85feed4865c"},"period":{"start":"2025-03-22T06:00:00+00:00","end":"2025-03-23T07:15:00+00:00"}},"request":{"method":"PUT","url":"Encounter/346dc256-4e7e-4993-8919-633302afb755"}},{"fullUrl":"https://madie.cms.gov/MedicationAdministration/5e78cff811f77d00003c017d","resource":{"resourceType":"MedicationAdministration","id":"f75f51f1-00ec-4fe0-a889-d75e9c7d5422","meta":{"profile":["http://hl7.org/fhir/us/qicore/StructureDefinition/qicore-medicationadministration"]},"status":"completed","medicationCodeableConcept":{"coding":[{"system":"http://www.nlm.nih.gov/research/umls/rxnorm","code":"1804799"}]},"subject":{"reference":"Patient/5450abfd-a667-4eb9-9b59-e85feed4865c"},"effectivePeriod":{"start":"2025-03-21T06:00:00+00:00","end":"2025-03-22T06:15:00+00:00"}},"request":{"method":"PUT","url":"MedicationAdministration/f75f51f1-00ec-4fe0-a889-d75e9c7d5422"}},{"fullUrl":"https://madie.cms.gov/MedicationRequest/5e78c867d9fca500001be7b0","resource":{"resourceType":"MedicationRequest","id":"952ca5ae-a190-40c4-860c-0a058b136bdb","meta":{"profile":["http://hl7.org/fhir/us/qicore/StructureDefinition/qicore-medicationrequest"]},"status":"completed","intent":"order","medicationCodeableConcept":{"coding":[{"system":"http://www.nlm.nih.gov/research/umls/rxnorm","code":"1037045"}]},"subject":{"reference":"Patient/5450abfd-a667-4eb9-9b59-e85feed4865c"},"authoredOn":"2025-03-23T08:00:00+00:00","requester":{"reference":"Practitioner/example"},"dosageInstruction":[{"timing":{"repeat":{"boundsPeriod":{"start":"2025-03-23T08:00:00+00:00","end":"2025-03-24T07:15:00+00:00"}}}}]},"request":{"method":"PUT","url":"MedicationRequest/952ca5ae-a190-40c4-860c-0a058b136bdb"}},{"fullUrl":"https://madie.cms.gov/Condition/ischemic-stroke-6d64","resource":{"resourceType":"Condition","id":"04257cb5-260a-4209-a18e-9addf66caa74","meta":{"profile":["http://hl7.org/fhir/us/qicore/StructureDefinition/qicore-condition"]},"clinicalStatus":{"coding":[{"system":"http://terminology.hl7.org/CodeSystem/condition-clinical","code":"active"}]},"verificationStatus":{"coding":[{"system":"http://terminology.hl7.org/CodeSystem/condition-ver-status","code":"confirmed"}]},"category":[{"coding":[{"system":"http://terminology.hl7.org/CodeSystem/condition-category","code":"encounter-diagnosis","display":"Encounter Diagnosis"}]}],"code":{"coding":[{"system":"http://snomed.info/sct","version":"2020-09","code":"111297002","display":"Nonparalytic stroke (disorder)","userSelected":true}]},"subject":{"reference":"Patient/5450abfd-a667-4eb9-9b59-e85feed4865c"},"recordedDate":"2025-08-13T08:00:00.000+00:00"},"request":{"method":"PUT","url":"Condition/04257cb5-260a-4209-a18e-9addf66caa74"}},{"fullUrl":"https://madie.cms.gov/Coverage/1","resource":{"resourceType":"Coverage","id":"dda951c3-f525-4f91-a3a7-0ac50b76b743","meta":{"profile":["http://hl7.org/fhir/us/qicore/StructureDefinition/qicore-coverage"]},"status":"active","beneficiary":{"reference":"Patient/5450abfd-a667-4eb9-9b59-e85feed4865c"},"payor":[{"reference":"Organization/4b5a882f-1f43-485c-85c6-f5ad2337d5b1"}]},"request":{"method":"PUT","url":"Coverage/dda951c3-f525-4f91-a3a7-0ac50b76b743"}},{"fullUrl":"https://madie.cms.gov/Organization/123456","resource":{"resourceType":"Organization","id":"4b5a882f-1f43-485c-85c6-f5ad2337d5b1","meta":{"profile":["http://hl7.org/fhir/us/qicore/StructureDefinition/qicore-organization"]},"identifier":[{"use":"temp","system":"urn:oid:2.16.840.1.113883.4.4","value":"21-3259825"}],"active":true,"type":[{"coding":[{"system":"http://terminology.hl7.org/CodeSystem/organization-type","code":"pay","display":"Payer"}]}],"name":"Blue Cross Blue Shield of Texas","telecom":[{"system":"phone","value":"(+1) 972-766-6900"}],"address":[{"use":"billing","type":"postal","line":["P.O. Box 660044"],"city":"Dallas","state":"TX","postalCode":"75266-0044","country":"USA"}]},"request":{"method":"PUT","url":"Organization/4b5a882f-1f43-485c-85c6-f5ad2337d5b1"}},{"fullUrl":"https://madie.cms.gov/MeasureReport/d934b173-bc07-4992-a454-76d19193cc9b","resource":{"resourceType":"MeasureReport","id":"d934b173-bc07-4992-a454-76d19193cc9b","meta":{"profile":["http://hl7.org/fhir/us/cqfmeasures/StructureDefinition/test-case-cqfm"]},"contained":[{"resourceType":"Parameters","id":"3934bb90-6a98-44da-a83c-87a20fc68ffa-parameters","parameter":[{"name":"subject","valueString":"5450abfd-a667-4eb9-9b59-e85feed4865c"}]}],"extension":[{"url":"http://hl7.org/fhir/us/cqfmeasures/StructureDefinition/cqfm-inputParameters","valueReference":{"reference":"#3934bb90-6a98-44da-a83c-87a20fc68ffa-parameters"}},{"url":"http://hl7.org/fhir/us/cqfmeasures/StructureDefinition/cqfm-testCaseDescription","valueMarkdown":"Patient has ED visit <=1hour before IP encounter AND receives IV or IA TPA 59 min before ED visit  (ProcTPA  <    24hr   before ED)\n"}],"modifierExtension":[{"url":"http://hl7.org/fhir/us/cqfmeasures/StructureDefinition/cqfm-isTestCase","valueBoolean":true}],"status":"complete","type":"individual","measure":"https://madie.cms.gov/Measure/AntithromboticTherapyByEndofHospitalDay2FHIR","period":{"start":"2025-01-01","end":"2025-12-31"},"group":[{"population":[{"code":{"coding":[{"system":"http://terminology.hl7.org/CodeSystem/measure-population","code":"initial-population","display":"Initial Population"}]},"count":1},{"code":{"coding":[{"system":"http://terminology.hl7.org/CodeSystem/measure-population","code":"denominator","display":"Denominator"}]},"count":1},{"code":{"coding":[{"system":"http://terminology.hl7.org/CodeSystem/measure-population","code":"denominator-exclusion","display":"Denominator Exclusion"}]},"count":1},{"code":{"coding":[{"system":"http://terminology.hl7.org/CodeSystem/measure-population","code":"numerator","display":"Numerator"}]},"count":0},{"code":{"coding":[{"system":"http://terminology.hl7.org/CodeSystem/measure-population","code":"denominator-exception","display":"Denominator Exception"}]},"count":0}]}]},"request":{"method":"PUT","url":"MeasureReport/d934b173-bc07-4992-a454-76d19193cc9b"}}]}