{"resourceType":"Bundle","id":"tests-624c0305-d8a4-41eb-bbc9-30aea2c53304-bundle","type":"transaction","entry":[{"fullUrl":"https://madie.cms.gov/Patient/624c0305-d8a4-41eb-bbc9-30aea2c53304","resource":{"resourceType":"Patient","id":"624c0305-d8a4-41eb-bbc9-30aea2c53304","meta":{"profile":["http://hl7.org/fhir/us/qicore/StructureDefinition/qicore-patient"]},"text":{"status":"generated","div":"<div xmlns=\"http://www.w3.org/1999/xhtml\"><div class=\"hapiHeaderText\">Med1TPAStart_EQEncIPEnd <b>DENEXPASS </b></div><table class=\"hapiPropertyTable\"><tbody><tr><td>Identifier</td><td>b7c8fe1527ff5967acb0869e0406ab63</td></tr><tr><td>Date of birth</td><td><span>26 September 1975</span></td></tr></tbody></table></div>"},"extension":[{"url":"http://hl7.org/fhir/us/core/StructureDefinition/us-core-race","extension":[{"url":"ombCategory","valueCoding":{"system":"urn:oid:2.16.840.1.113883.6.238","code":"2054-5","display":"Black or African American","userSelected":true}},{"url":"text","valueString":"Black or African American"}]},{"url":"http://hl7.org/fhir/us/core/StructureDefinition/us-core-ethnicity","extension":[{"url":"ombCategory","valueCoding":{"system":"urn:oid:2.16.840.1.113883.6.238","code":"2186-5","display":"Not Hispanic or Latino","userSelected":true}},{"url":"text","valueString":"Not Hispanic or Latino"}]}],"identifier":[{"type":{"coding":[{"system":"http://terminology.hl7.org/CodeSystem/v2-0203","code":"MR"}]},"system":"https://bonnie-fhir.healthit.gov/","value":"60f82c2e98086b570510e285"}],"active":true,"name":[{"use":"usual","family":"DENEXPass","given":["Med1TPAStart_EQEncIPEnd"]}],"gender":"female","birthDate":"1975-09-26"},"request":{"method":"PUT","url":"Patient/624c0305-d8a4-41eb-bbc9-30aea2c53304"}},{"fullUrl":"https://madie.cms.gov/Encounter/5c954893b848462de0ae6251","resource":{"resourceType":"Encounter","id":"5c954893b848462de0ae6251","meta":{"profile":["http://hl7.org/fhir/us/qicore/StructureDefinition/qicore-encounter"]},"status":"finished","class":{"system":"http://terminology.hl7.org/CodeSystem/v3-ActCode","code":"EMER","display":"emergency"},"type":[{"coding":[{"system":"http://snomed.info/sct","code":"4525004"}]}],"subject":{"reference":"Patient/624c0305-d8a4-41eb-bbc9-30aea2c53304"},"period":{"start":"2025-10-10T06:00:00+00:00","end":"2025-10-10T08:30:00+00:00"},"length":{"value":0.0,"unit":"days"}},"request":{"method":"PUT","url":"Encounter/5c954893b848462de0ae6251"}},{"fullUrl":"https://madie.cms.gov/Encounter/5c954893b848462de0ae6252","resource":{"resourceType":"Encounter","id":"5c954893b848462de0ae6252","meta":{"profile":["http://hl7.org/fhir/us/qicore/StructureDefinition/qicore-encounter"]},"status":"finished","class":{"system":"http://terminology.hl7.org/CodeSystem/v3-ActCode","code":"IMP","display":"inpatient encounter"},"type":[{"coding":[{"system":"http://snomed.info/sct","code":"32485007"}]}],"subject":{"reference":"Patient/624c0305-d8a4-41eb-bbc9-30aea2c53304"},"period":{"start":"2025-10-10T09:00:00+00:00","end":"2025-10-12T09:00:00+00:00"},"length":{"value":2.0,"unit":"days"},"diagnosis":[{"condition":{"reference":"Condition/ischemic-stroke-2d61"},"use":{"coding":[{"system":"http://snomed.info/sct","code":"111297002","display":"Ischemic Stroke"}]},"rank":1}]},"request":{"method":"PUT","url":"Encounter/5c954893b848462de0ae6252"}},{"fullUrl":"https://madie.cms.gov/MedicationAdministration/5de563d65b87f90000eaef9c","resource":{"resourceType":"MedicationAdministration","id":"5de563d65b87f90000eaef9c","meta":{"profile":["http://hl7.org/fhir/us/qicore/StructureDefinition/qicore-medicationadministration"]},"extension":[{"url":"http://hl7.org/fhir/us/qicore/StructureDefinition/qicore-recorded","valueDateTime":"2025-10-11T09:00:00+00:00"}],"status":"completed","medicationCodeableConcept":{"coding":[{"system":"http://www.nlm.nih.gov/research/umls/rxnorm","code":"1804799"}]},"subject":{"reference":"Patient/624c0305-d8a4-41eb-bbc9-30aea2c53304"},"effectivePeriod":{"start":"2025-10-11T09:00:00+00:00","end":"2025-10-12T09:00:00+00:00"}},"request":{"method":"PUT","url":"MedicationAdministration/5de563d65b87f90000eaef9c"}},{"fullUrl":"https://madie.cms.gov/Coverage/5e20a36c1c76ba6c5896ebe8","resource":{"resourceType":"Coverage","id":"5e20a36c1c76ba6c5896ebe8","status":"active","beneficiary":{"reference":"Patient/624c0305-d8a4-41eb-bbc9-30aea2c53304"},"period":{"start":"1975-09-26T08:00:00+00:00"},"payor":[{"reference":"Organization/Org-123456"}]},"request":{"method":"PUT","url":"Coverage/5e20a36c1c76ba6c5896ebe8"}},{"fullUrl":"https://madie.cms.gov/Condition/ischemic-stroke-2d61","resource":{"resourceType":"Condition","id":"ischemic-stroke-2d61","meta":{"profile":["http://hl7.org/fhir/us/qicore/StructureDefinition/qicore-condition"]},"clinicalStatus":{"coding":[{"system":"http://terminology.hl7.org/CodeSystem/condition-clinical","code":"active"}]},"verificationStatus":{"coding":[{"system":"http://terminology.hl7.org/CodeSystem/condition-ver-status","code":"confirmed"}]},"category":[{"coding":[{"system":"http://terminology.hl7.org/CodeSystem/condition-category","code":"encounter-diagnosis","display":"Encounter Diagnosis"}]}],"code":{"coding":[{"system":"http://snomed.info/sct","version":"2020-09","code":"111297002","display":"Nonparalytic stroke (disorder)","userSelected":true}]},"subject":{"reference":"Patient/624c0305-d8a4-41eb-bbc9-30aea2c53304"},"recordedDate":"2025-08-13T08:00:00.000+00:00"},"request":{"method":"PUT","url":"Condition/ischemic-stroke-2d61"}},{"fullUrl":"https://madie.cms.gov/Organization/123456","resource":{"resourceType":"Organization","id":"Org-123456","meta":{"profile":["http://hl7.org/fhir/us/qicore/StructureDefinition/qicore-organization"]},"identifier":[{"use":"temp","system":"urn:oid:2.16.840.1.113883.4.4","value":"21-3259825"}],"active":true,"type":[{"coding":[{"system":"http://terminology.hl7.org/CodeSystem/organization-type","code":"pay","display":"Payer"}]}],"name":"Blue Cross Blue Shield of Texas","telecom":[{"system":"phone","value":"(+1) 972-766-6900"}],"address":[{"use":"billing","type":"postal","line":["P.O. Box 660044"],"city":"Dallas","state":"TX","postalCode":"75266-0044","country":"USA"}]},"request":{"method":"PUT","url":"Organization/Org-123456"}},{"fullUrl":"https://madie.cms.gov/MeasureReport/6d6469d8-9a0b-4365-abe2-9c93d0dba344","resource":{"resourceType":"MeasureReport","id":"6d6469d8-9a0b-4365-abe2-9c93d0dba344","meta":{"profile":["http://hl7.org/fhir/us/cqfmeasures/StructureDefinition/test-case-cqfm"]},"contained":[{"resourceType":"Parameters","id":"1edc0a74-b99c-4ee3-aa4a-a638666c5c51-parameters","parameter":[{"name":"subject","valueString":"624c0305-d8a4-41eb-bbc9-30aea2c53304"}]}],"extension":[{"url":"http://hl7.org/fhir/us/cqfmeasures/StructureDefinition/cqfm-inputParameters","valueReference":{"reference":"#1edc0a74-b99c-4ee3-aa4a-a638666c5c51-parameters"}},{"url":"http://hl7.org/fhir/us/cqfmeasures/StructureDefinition/cqfm-testCaseDescription","valueMarkdown":"Patient has ED visit <=1hour before IP encounter AND receives TPA=EncIP End tm,  global.\"Hospitalization\" =(Ed+IP)\n"}],"modifierExtension":[{"url":"http://hl7.org/fhir/us/cqfmeasures/StructureDefinition/cqfm-isTestCase","valueBoolean":true}],"status":"complete","type":"individual","measure":"https://madie.cms.gov/Measure/AntithromboticTherapyByEndofHospitalDay2FHIR","period":{"start":"2025-01-01","end":"2025-12-31"},"group":[{"population":[{"code":{"coding":[{"system":"http://terminology.hl7.org/CodeSystem/measure-population","code":"initial-population","display":"Initial Population"}]},"count":1},{"code":{"coding":[{"system":"http://terminology.hl7.org/CodeSystem/measure-population","code":"denominator","display":"Denominator"}]},"count":1},{"code":{"coding":[{"system":"http://terminology.hl7.org/CodeSystem/measure-population","code":"denominator-exclusion","display":"Denominator Exclusion"}]},"count":1},{"code":{"coding":[{"system":"http://terminology.hl7.org/CodeSystem/measure-population","code":"numerator","display":"Numerator"}]},"count":0},{"code":{"coding":[{"system":"http://terminology.hl7.org/CodeSystem/measure-population","code":"denominator-exception","display":"Denominator Exception"}]},"count":0}]}],"evaluatedResource":[{"reference":"Patient/624c0305-d8a4-41eb-bbc9-30aea2c53304"},{"reference":"Encounter/5c954893b848462de0ae6251"},{"reference":"Encounter/5c954893b848462de0ae6252"},{"reference":"MedicationAdministration/5de563d65b87f90000eaef9c"},{"reference":"Coverage/5e20a36c1c76ba6c5896ebe8"},{"reference":"Condition/ischemic-stroke-2d61"},{"reference":"Organization/Org-123456"}]},"request":{"method":"PUT","url":"MeasureReport/6d6469d8-9a0b-4365-abe2-9c93d0dba344"}}]}