{"resourceType":"Bundle","id":"tests-a2cb4956-d7e5-45a9-8007-80dcb893203c-bundle","type":"transaction","entry":[{"fullUrl":"https://madie.cms.gov/Patient/a2cb4956-d7e5-45a9-8007-80dcb893203c","resource":{"resourceType":"Patient","id":"a2cb4956-d7e5-45a9-8007-80dcb893203c","meta":{"profile":["http://hl7.org/fhir/us/qicore/StructureDefinition/qicore-patient"]},"text":{"status":"generated","div":"<div xmlns=\"http://www.w3.org/1999/xhtml\"><div class=\"hapiHeaderText\">INRDayAftEnc_ED&lt;1hrObs&lt;1hrBFEncDayOf <b>DENEXCEPASS </b></div><table class=\"hapiPropertyTable\"><tbody><tr><td>Identifier</td><td>eb0390ddf5cccfdde210d05452662b986f9c97b164102446c8fbef7016593c62</td></tr><tr><td>Date of birth</td><td><span>26 September 1975</span></td></tr></tbody></table></div>"},"extension":[{"url":"http://hl7.org/fhir/us/core/StructureDefinition/us-core-race","extension":[{"url":"ombCategory","valueCoding":{"system":"urn:oid:2.16.840.1.113883.6.238","code":"2054-5","display":"Black or African American","userSelected":true}},{"url":"text","valueString":"Black or African American"}]},{"url":"http://hl7.org/fhir/us/core/StructureDefinition/us-core-ethnicity","extension":[{"url":"ombCategory","valueCoding":{"system":"urn:oid:2.16.840.1.113883.6.238","code":"2186-5","display":"Not Hispanic or Latino","userSelected":true}},{"url":"text","valueString":"Not Hispanic or Latino"}]}],"identifier":[{"type":{"coding":[{"system":"http://terminology.hl7.org/CodeSystem/v2-0203","code":"MR"}]},"system":"https://bonnie-fhir.healthit.gov/","value":"60f82c2f98086b570510e2a8"}],"active":true,"name":[{"use":"usual","family":"DENEXCEPass","given":["INRDayAftEnc_ED<1hrObs<1hrBFEncDayOf"]}],"gender":"female","birthDate":"1975-09-26"},"request":{"method":"PUT","url":"Patient/a2cb4956-d7e5-45a9-8007-80dcb893203c"}},{"fullUrl":"https://madie.cms.gov/Encounter/5c954894b848462de0ae62cc","resource":{"resourceType":"Encounter","id":"65aa79ba-30e2-42b5-975a-d181a24f1c9a","meta":{"profile":["http://hl7.org/fhir/us/qicore/StructureDefinition/qicore-encounter"]},"status":"finished","class":{"system":"http://terminology.hl7.org/CodeSystem/v3-ActCode","code":"EMER","display":"emergency","userSelected":true},"type":[{"coding":[{"system":"http://snomed.info/sct","code":"4525004"}]}],"subject":{"reference":"Patient/a2cb4956-d7e5-45a9-8007-80dcb893203c"},"period":{"start":"2025-10-11T06:15:00+00:00","end":"2025-10-11T06:30:00+00:00"},"length":{"value":0,"unit":"days"}},"request":{"method":"PUT","url":"Encounter/65aa79ba-30e2-42b5-975a-d181a24f1c9a"}},{"fullUrl":"https://madie.cms.gov/Encounter/5c954894b848462de0ae62cd","resource":{"resourceType":"Encounter","id":"f3385807-af53-4d6e-8d04-4aad22f54ebc","meta":{"profile":["http://hl7.org/fhir/us/qicore/StructureDefinition/qicore-encounter"]},"status":"finished","class":{"system":"http://terminology.hl7.org/CodeSystem/v3-ActCode","code":"OBSENC","display":"observation encounter","userSelected":true},"type":[{"coding":[{"system":"http://snomed.info/sct","code":"448851000124103"}]}],"subject":{"reference":"Patient/a2cb4956-d7e5-45a9-8007-80dcb893203c"},"period":{"start":"2025-10-11T06:31:00+00:00","end":"2025-10-11T07:30:00+00:00"},"length":{"value":0,"unit":"days"}},"request":{"method":"PUT","url":"Encounter/f3385807-af53-4d6e-8d04-4aad22f54ebc"}},{"fullUrl":"https://madie.cms.gov/Encounter/5c954894b848462de0ae62ce","resource":{"resourceType":"Encounter","id":"7317d5aa-4489-49d2-bc4f-e7cb1ff71ab5","meta":{"profile":["http://hl7.org/fhir/us/qicore/StructureDefinition/qicore-encounter"]},"status":"finished","class":{"system":"http://terminology.hl7.org/CodeSystem/v3-ActCode","code":"IMP","display":"inpatient encounter","userSelected":true},"type":[{"coding":[{"system":"http://snomed.info/sct","code":"32485007"}]}],"subject":{"reference":"Patient/a2cb4956-d7e5-45a9-8007-80dcb893203c"},"period":{"start":"2025-10-11T07:31:00+00:00","end":"2025-10-15T11:30:00+00:00"},"length":{"value":4,"unit":"days"},"diagnosis":[{"condition":{"reference":"Condition/ischemic-stroke-9f14"},"use":{"coding":[{"system":"http://terminology.hl7.org/CodeSystem/diagnosis-role","code":"billing","display":"Billing"}]},"rank":1}]},"request":{"method":"PUT","url":"Encounter/7317d5aa-4489-49d2-bc4f-e7cb1ff71ab5"}},{"fullUrl":"https://madie.cms.gov/Observation/5c954894b848462de0ae62d0","resource":{"resourceType":"Observation","id":"c6e7473b-521d-4fdb-8609-18440a744d93","meta":{"profile":["http://hl7.org/fhir/us/qicore/StructureDefinition/qicore-observation"]},"status":"final","category":[{"coding":[{"system":"http://terminology.hl7.org/CodeSystem/observation-category","code":"laboratory","display":"Laboratory"}]}],"code":{"coding":[{"system":"http://loinc.org","code":"34714-6"}]},"subject":{"reference":"Patient/a2cb4956-d7e5-45a9-8007-80dcb893203c"},"effectivePeriod":{"start":"2025-10-10T06:14:00+00:00"},"issued":"2025-10-12T00:00:00.000+00:00","valueQuantity":{"value":3.6}},"request":{"method":"PUT","url":"Observation/c6e7473b-521d-4fdb-8609-18440a744d93"}},{"fullUrl":"https://madie.cms.gov/Coverage/5e20a3701c76ba6c5896ec0b","resource":{"resourceType":"Coverage","id":"a1602239-0694-4ddd-8baa-b652c35a71bf","status":"active","beneficiary":{"reference":"Patient/a2cb4956-d7e5-45a9-8007-80dcb893203c"},"period":{"start":"1975-09-26T08:00:00+00:00"},"payor":[{"reference":"Organization/4b5a882f-1f43-485c-85c6-f5ad2337d5b1"}]},"request":{"method":"PUT","url":"Coverage/a1602239-0694-4ddd-8baa-b652c35a71bf"}},{"fullUrl":"https://madie.cms.gov/Condition/ischemic-stroke-9f14","resource":{"resourceType":"Condition","id":"8001bdf3-2253-4394-b77f-798966b7e513","meta":{"profile":["http://hl7.org/fhir/us/qicore/StructureDefinition/qicore-condition"]},"clinicalStatus":{"coding":[{"system":"http://terminology.hl7.org/CodeSystem/condition-clinical","code":"active"}]},"verificationStatus":{"coding":[{"system":"http://terminology.hl7.org/CodeSystem/condition-ver-status","code":"confirmed"}]},"category":[{"coding":[{"system":"http://terminology.hl7.org/CodeSystem/condition-category","code":"encounter-diagnosis","display":"Encounter Diagnosis"}]}],"code":{"coding":[{"system":"http://snomed.info/sct","version":"2020-09","code":"111297002","display":"Nonparalytic stroke (disorder)","userSelected":true}]},"subject":{"reference":"Patient/a2cb4956-d7e5-45a9-8007-80dcb893203c"},"recordedDate":"2025-08-06T08:00:00.000+00:00"},"request":{"method":"PUT","url":"Condition/8001bdf3-2253-4394-b77f-798966b7e513"}},{"fullUrl":"https://madie.cms.gov/Organization/123456","resource":{"resourceType":"Organization","id":"4b5a882f-1f43-485c-85c6-f5ad2337d5b1","meta":{"profile":["http://hl7.org/fhir/us/qicore/StructureDefinition/qicore-organization"]},"identifier":[{"use":"temp","system":"urn:oid:2.16.840.1.113883.4.4","value":"21-3259825"}],"active":true,"type":[{"coding":[{"system":"http://terminology.hl7.org/CodeSystem/organization-type","code":"pay","display":"Payer"}]}],"name":"Blue Cross Blue Shield of Texas","telecom":[{"system":"phone","value":"(+1) 972-766-6900"}],"address":[{"use":"billing","type":"postal","line":["P.O. Box 660044"],"city":"Dallas","state":"TX","postalCode":"75266-0044","country":"USA"}]},"request":{"method":"PUT","url":"Organization/4b5a882f-1f43-485c-85c6-f5ad2337d5b1"}},{"fullUrl":"https://madie.cms.gov/MeasureReport/5f640e7f-693a-44ea-b546-bf20c0119fe8","resource":{"resourceType":"MeasureReport","id":"5f640e7f-693a-44ea-b546-bf20c0119fe8","meta":{"profile":["http://hl7.org/fhir/us/cqfmeasures/StructureDefinition/test-case-cqfm"]},"contained":[{"resourceType":"Parameters","id":"7fbf8965-63df-4064-a84a-abe1fc00ab85-parameters","parameter":[{"name":"subject","valueString":"a2cb4956-d7e5-45a9-8007-80dcb893203c"}]}],"extension":[{"url":"http://hl7.org/fhir/us/cqfmeasures/StructureDefinition/cqfm-inputParameters","valueReference":{"reference":"#7fbf8965-63df-4064-a84a-abe1fc00ab85-parameters"}},{"url":"http://hl7.org/fhir/us/cqfmeasures/StructureDefinition/cqfm-testCaseDescription","valueMarkdown":"Last ED ends less than 1 hour before OBS start, valid OBS, INR result date time equivalent ED start 2 days after IP start. Testing INR exclusion, valid OBS heading in scenario sheet. Vlaid INR result, outside window of day of or day after. \n"}],"modifierExtension":[{"url":"http://hl7.org/fhir/us/cqfmeasures/StructureDefinition/cqfm-isTestCase","valueBoolean":true}],"status":"complete","type":"individual","measure":"https://madie.cms.gov/Measure/AntithromboticTherapyByEndofHospitalDay2FHIR","period":{"start":"2025-01-01","end":"2025-12-31"},"group":[{"population":[{"code":{"coding":[{"system":"http://terminology.hl7.org/CodeSystem/measure-population","code":"initial-population","display":"Initial Population"}]},"count":1},{"code":{"coding":[{"system":"http://terminology.hl7.org/CodeSystem/measure-population","code":"denominator","display":"Denominator"}]},"count":1},{"code":{"coding":[{"system":"http://terminology.hl7.org/CodeSystem/measure-population","code":"denominator-exclusion","display":"Denominator Exclusion"}]},"count":0},{"code":{"coding":[{"system":"http://terminology.hl7.org/CodeSystem/measure-population","code":"numerator","display":"Numerator"}]},"count":0},{"code":{"coding":[{"system":"http://terminology.hl7.org/CodeSystem/measure-population","code":"denominator-exception","display":"Denominator Exception"}]},"count":1}]}]},"request":{"method":"PUT","url":"MeasureReport/5f640e7f-693a-44ea-b546-bf20c0119fe8"}}]}