{"resourceType":"Bundle","id":"tests-c48c3487-44cf-4a09-bc17-e60e66d19002-bundle","type":"transaction","entry":[{"fullUrl":"https://madie.cms.gov/Patient/c48c3487-44cf-4a09-bc17-e60e66d19002","resource":{"resourceType":"Patient","id":"c48c3487-44cf-4a09-bc17-e60e66d19002","meta":{"profile":["http://hl7.org/fhir/us/qicore/StructureDefinition/qicore-patient"]},"text":{"status":"generated","div":"<div xmlns=\"http://www.w3.org/1999/xhtml\"><div class=\"hapiHeaderText\">PharmContraDayAftObs_ED&lt;1hrDayOfObs&lt;1hrDayAftBFEnc <b>DENEXCEPPASS </b></div><table class=\"hapiPropertyTable\"><tbody><tr><td>Identifier</td><td>d9b55839595aaa52c16083ee418cfa62f77b33abf90f91ffa69d9dec0524b571</td></tr><tr><td>Date of birth</td><td><span>26 September 1975</span></td></tr></tbody></table></div>"},"extension":[{"url":"http://hl7.org/fhir/us/core/StructureDefinition/us-core-race","extension":[{"url":"ombCategory","valueCoding":{"system":"urn:oid:2.16.840.1.113883.6.238","code":"2054-5","display":"Black or African American","userSelected":true}},{"url":"text","valueString":"Black or African American"}]},{"url":"http://hl7.org/fhir/us/core/StructureDefinition/us-core-ethnicity","extension":[{"url":"ombCategory","valueCoding":{"system":"urn:oid:2.16.840.1.113883.6.238","code":"2135-2","display":"Hispanic or Latino","userSelected":true}},{"url":"text","valueString":"Hispanic or Latino"}]}],"identifier":[{"type":{"coding":[{"system":"http://terminology.hl7.org/CodeSystem/v2-0203","code":"MR"}]},"system":"https://bonnie-fhir.healthit.gov/","value":"60f82c2f98086b570510e2b9"}],"active":true,"name":[{"use":"usual","family":"DENEXCEPPass","given":["PharmContraDayAftObs_ED<1hrDayOfObs<1hrDayAftBFEnc"]}],"gender":"female","birthDate":"1975-09-26"},"request":{"method":"PUT","url":"Patient/c48c3487-44cf-4a09-bc17-e60e66d19002"}},{"fullUrl":"https://madie.cms.gov/Encounter/5c954895b848462de0ae632c","resource":{"resourceType":"Encounter","id":"5c954895b848462de0ae632c","meta":{"profile":["http://hl7.org/fhir/us/qicore/StructureDefinition/qicore-encounter"]},"status":"finished","class":{"system":"http://terminology.hl7.org/CodeSystem/v3-ActCode","code":"EMER","display":"emergency","userSelected":true},"type":[{"coding":[{"system":"http://snomed.info/sct","code":"4525004"}]}],"subject":{"reference":"Patient/c48c3487-44cf-4a09-bc17-e60e66d19002"},"period":{"start":"2025-10-10T09:00:00+00:00","end":"2025-10-10T09:15:00+00:00"},"length":{"value":0.0,"unit":"days"}},"request":{"method":"PUT","url":"Encounter/5c954895b848462de0ae632c"}},{"fullUrl":"https://madie.cms.gov/Encounter/5c954895b848462de0ae632d","resource":{"resourceType":"Encounter","id":"5c954895b848462de0ae632d","meta":{"profile":["http://hl7.org/fhir/us/qicore/StructureDefinition/qicore-encounter"]},"status":"finished","class":{"system":"http://terminology.hl7.org/CodeSystem/v3-ActCode","code":"OBSENC","display":"observation encounter","userSelected":true},"type":[{"coding":[{"system":"http://snomed.info/sct","code":"448951000124107"}]}],"subject":{"reference":"Patient/c48c3487-44cf-4a09-bc17-e60e66d19002"},"period":{"start":"2025-10-10T09:16:00+00:00","end":"2025-10-11T23:59:00+00:00"},"length":{"value":1.0,"unit":"days"}},"request":{"method":"PUT","url":"Encounter/5c954895b848462de0ae632d"}},{"fullUrl":"https://madie.cms.gov/Encounter/5c954895b848462de0ae632e","resource":{"resourceType":"Encounter","id":"5c954895b848462de0ae632e","meta":{"profile":["http://hl7.org/fhir/us/qicore/StructureDefinition/qicore-encounter"]},"status":"finished","class":{"system":"http://terminology.hl7.org/CodeSystem/v3-ActCode","code":"IMP","display":"inpatient encounter","userSelected":true},"type":[{"coding":[{"system":"http://snomed.info/sct","code":"32485007"}]}],"subject":{"reference":"Patient/c48c3487-44cf-4a09-bc17-e60e66d19002"},"period":{"start":"2025-10-12T00:00:00+00:00","end":"2025-10-17T11:15:00+00:00"},"length":{"value":5.0,"unit":"days"},"diagnosis":[{"condition":{"reference":"Condition/ischemic-stroke-9f0a"},"use":{"coding":[{"system":"http://snomed.info/sct","code":"111297002","display":"Ischemic Stroke"}]},"rank":1}]},"request":{"method":"PUT","url":"Encounter/5c954895b848462de0ae632e"}},{"fullUrl":"https://madie.cms.gov/MedicationAdministration/5de6c3b65b87f90000eaf2cc","resource":{"resourceType":"MedicationAdministration","id":"5de6c3b65b87f90000eaf2cc","meta":{"profile":["http://hl7.org/fhir/us/qicore/StructureDefinition/qicore-medicationadministration"]},"status":"completed","medicationCodeableConcept":{"coding":[{"system":"http://www.nlm.nih.gov/research/umls/rxnorm","code":"855812","display":"prasugrel 10 MG Oral Tablet","userSelected":true}]},"subject":{"reference":"Patient/c48c3487-44cf-4a09-bc17-e60e66d19002"},"effectivePeriod":{"start":"2025-10-11T23:59:00+00:00"}},"request":{"method":"PUT","url":"MedicationAdministration/5de6c3b65b87f90000eaf2cc"}},{"fullUrl":"https://madie.cms.gov/Coverage/5e20a3721c76ba6c5896ec1c","resource":{"resourceType":"Coverage","id":"5e20a3721c76ba6c5896ec1c","status":"active","beneficiary":{"reference":"Patient/c48c3487-44cf-4a09-bc17-e60e66d19002"},"period":{"start":"1975-09-26T08:00:00+00:00"},"payor":[{"reference":"Organization/Org-123456"}]},"request":{"method":"PUT","url":"Coverage/5e20a3721c76ba6c5896ec1c"}},{"fullUrl":"https://madie.cms.gov/Condition/ischemic-stroke-9f0a","resource":{"resourceType":"Condition","id":"ischemic-stroke-9f0a","meta":{"profile":["http://hl7.org/fhir/us/qicore/StructureDefinition/qicore-condition"]},"clinicalStatus":{"coding":[{"system":"http://terminology.hl7.org/CodeSystem/condition-clinical","code":"active"}]},"verificationStatus":{"coding":[{"system":"http://terminology.hl7.org/CodeSystem/condition-ver-status","code":"confirmed"}]},"category":[{"coding":[{"system":"http://terminology.hl7.org/CodeSystem/condition-category","code":"encounter-diagnosis","display":"Encounter Diagnosis"}]}],"code":{"coding":[{"system":"http://snomed.info/sct","version":"2020-09","code":"111297002","display":"Nonparalytic stroke (disorder)","userSelected":true}]},"subject":{"reference":"Patient/c48c3487-44cf-4a09-bc17-e60e66d19002"},"recordedDate":"2025-08-06T08:00:00.000+00:00"},"request":{"method":"PUT","url":"Condition/ischemic-stroke-9f0a"}},{"fullUrl":"https://madie.cms.gov/Organization/123456","resource":{"resourceType":"Organization","id":"Org-123456","meta":{"profile":["http://hl7.org/fhir/us/qicore/StructureDefinition/qicore-organization"]},"identifier":[{"use":"temp","system":"urn:oid:2.16.840.1.113883.4.4","value":"21-3259825"}],"active":true,"type":[{"coding":[{"system":"http://terminology.hl7.org/CodeSystem/organization-type","code":"pay","display":"Payer"}]}],"name":"Blue Cross Blue Shield of Texas","telecom":[{"system":"phone","value":"(+1) 972-766-6900"}],"address":[{"use":"billing","type":"postal","line":["P.O. Box 660044"],"city":"Dallas","state":"TX","postalCode":"75266-0044","country":"USA"}]},"request":{"method":"PUT","url":"Organization/Org-123456"}},{"fullUrl":"https://madie.cms.gov/MeasureReport/1e585fb6-e1e8-474a-9951-c79e10d4eee8","resource":{"resourceType":"MeasureReport","id":"1e585fb6-e1e8-474a-9951-c79e10d4eee8","meta":{"profile":["http://hl7.org/fhir/us/cqfmeasures/StructureDefinition/test-case-cqfm"]},"contained":[{"resourceType":"Parameters","id":"63924306-6c86-4fc8-821f-ec9912d57334-parameters","parameter":[{"name":"subject","valueString":"c48c3487-44cf-4a09-bc17-e60e66d19002"}]}],"extension":[{"url":"http://hl7.org/fhir/us/cqfmeasures/StructureDefinition/cqfm-inputParameters","valueReference":{"reference":"#63924306-6c86-4fc8-821f-ec9912d57334-parameters"}},{"url":"http://hl7.org/fhir/us/cqfmeasures/StructureDefinition/cqfm-testCaseDescription","valueMarkdown":"Patient receives Ticagrelor during Obs, the day after Obs starts. ED ends 1 min before Obs.Obs ends 1 min before IP start at midnight. Testing Day of operator with HospitalizationWithObservation function.\n"}],"modifierExtension":[{"url":"http://hl7.org/fhir/us/cqfmeasures/StructureDefinition/cqfm-isTestCase","valueBoolean":true}],"status":"complete","type":"individual","measure":"https://madie.cms.gov/Measure/AntithromboticTherapyByEndofHospitalDay2FHIR","period":{"start":"2025-01-01","end":"2025-12-31"},"group":[{"population":[{"code":{"coding":[{"system":"http://terminology.hl7.org/CodeSystem/measure-population","code":"initial-population","display":"Initial Population"}]},"count":1},{"code":{"coding":[{"system":"http://terminology.hl7.org/CodeSystem/measure-population","code":"denominator","display":"Denominator"}]},"count":1},{"code":{"coding":[{"system":"http://terminology.hl7.org/CodeSystem/measure-population","code":"denominator-exclusion","display":"Denominator Exclusion"}]},"count":0},{"code":{"coding":[{"system":"http://terminology.hl7.org/CodeSystem/measure-population","code":"numerator","display":"Numerator"}]},"count":0},{"code":{"coding":[{"system":"http://terminology.hl7.org/CodeSystem/measure-population","code":"denominator-exception","display":"Denominator Exception"}]},"count":1}]}],"evaluatedResource":[{"reference":"Patient/c48c3487-44cf-4a09-bc17-e60e66d19002"},{"reference":"Encounter/5c954895b848462de0ae632c"},{"reference":"Encounter/5c954895b848462de0ae632d"},{"reference":"Encounter/5c954895b848462de0ae632e"},{"reference":"MedicationAdministration/5de6c3b65b87f90000eaf2cc"},{"reference":"Coverage/5e20a3721c76ba6c5896ec1c"},{"reference":"Condition/ischemic-stroke-9f0a"},{"reference":"Organization/Org-123456"}]},"request":{"method":"PUT","url":"MeasureReport/1e585fb6-e1e8-474a-9951-c79e10d4eee8"}}]}