{"resourceType":"Bundle","id":"tests-145ddce1-5ecd-4bcb-b58d-6c39b55e4f54-bundle","type":"transaction","entry":[{"fullUrl":"https://madie.cms.gov/Patient/145ddce1-5ecd-4bcb-b58d-6c39b55e4f54","resource":{"resourceType":"Patient","id":"145ddce1-5ecd-4bcb-b58d-6c39b55e4f54","meta":{"profile":["http://hl7.org/fhir/us/qicore/StructureDefinition/qicore-patient"]},"text":{"status":"generated","div":"<div xmlns=\"http://www.w3.org/1999/xhtml\"><div class=\"hapiHeaderText\">EncB4MP <b>IPPFAIL </b></div><table class=\"hapiPropertyTable\"><tbody><tr><td>Identifier</td><td>7592b753ea9652ea4df9928763a65677</td></tr><tr><td>Date of birth</td><td><span>21 August 1993</span></td></tr></tbody></table></div>"},"extension":[{"url":"http://hl7.org/fhir/us/core/StructureDefinition/us-core-race","extension":[{"url":"ombCategory","valueCoding":{"system":"urn:oid:2.16.840.1.113883.6.238","code":"1002-5","display":"American Indian or Alaska Native","userSelected":true}},{"url":"text","valueString":"American Indian or Alaska Native"}]},{"url":"http://hl7.org/fhir/us/core/StructureDefinition/us-core-ethnicity","extension":[{"url":"ombCategory","valueCoding":{"system":"urn:oid:2.16.840.1.113883.6.238","code":"2186-5","display":"Not Hispanic or Latino","userSelected":true}},{"url":"text","valueString":"Not Hispanic or Latino"}]}],"identifier":[{"type":{"coding":[{"system":"http://terminology.hl7.org/CodeSystem/v2-0203","code":"MR"}]},"system":"https://bonnie-fhir.healthit.gov/","value":"60f82c2d98086b570510e250"}],"active":true,"name":[{"use":"usual","family":"IPPFail","given":["EncB4MP"]}],"gender":"male","birthDate":"1993-08-21"},"request":{"method":"PUT","url":"Patient/145ddce1-5ecd-4bcb-b58d-6c39b55e4f54"}},{"fullUrl":"https://madie.cms.gov/Encounter/5c954892b848462de0ae61aa","resource":{"resourceType":"Encounter","id":"6f226452-6751-450a-b7b2-3cef8aaccd05","meta":{"profile":["http://hl7.org/fhir/us/qicore/StructureDefinition/qicore-encounter"]},"status":"finished","class":{"system":"http://terminology.hl7.org/CodeSystem/v3-ActCode","code":"IMP","display":"inpatient encounter"},"type":[{"coding":[{"system":"http://snomed.info/sct","code":"32485007"}]}],"subject":{"reference":"Patient/145ddce1-5ecd-4bcb-b58d-6c39b55e4f54"},"period":{"start":"2023-08-21T09:30:00+00:00","end":"2023-12-19T10:30:00+00:00"},"length":{"value":120.0,"unit":"days"},"diagnosis":[{"condition":{"reference":"Condition/ischemic-stroke-824c"},"use":{"coding":[{"system":"http://snomed.info/sct","code":"64586002","display":"Ischemic Stroke Snomed Ct"}]},"rank":1}]},"request":{"method":"PUT","url":"Encounter/6f226452-6751-450a-b7b2-3cef8aaccd05"}},{"fullUrl":"https://madie.cms.gov/Coverage/5e20a3661c76ba6c5896ebb3","resource":{"resourceType":"Coverage","id":"7f9c9c24-fd22-44c4-a7e0-ec5e5e757f86","status":"active","beneficiary":{"reference":"Patient/145ddce1-5ecd-4bcb-b58d-6c39b55e4f54"},"period":{"start":"1993-08-21T07:00:00+00:00"},"payor":[{"reference":"Organization/42846cc3-1db0-4bf7-b9ff-8b81fa6e835d"}]},"request":{"method":"PUT","url":"Coverage/7f9c9c24-fd22-44c4-a7e0-ec5e5e757f86"}},{"fullUrl":"https://madie.cms.gov/Organization/123456","resource":{"resourceType":"Organization","id":"42846cc3-1db0-4bf7-b9ff-8b81fa6e835d","meta":{"profile":["http://hl7.org/fhir/us/qicore/StructureDefinition/qicore-organization"]},"identifier":[{"use":"temp","system":"urn:oid:2.16.840.1.113883.4.4","value":"21-3259825"}],"active":true,"type":[{"coding":[{"system":"http://terminology.hl7.org/CodeSystem/organization-type","code":"pay","display":"Payer"}]}],"name":"Blue Cross Blue Shield of Texas","telecom":[{"system":"phone","value":"(+1) 972-766-6900"}],"address":[{"use":"billing","type":"postal","line":["P.O. Box 660044"],"city":"Dallas","state":"TX","postalCode":"75266-0044","country":"USA"}]},"request":{"method":"PUT","url":"Organization/42846cc3-1db0-4bf7-b9ff-8b81fa6e835d"}},{"fullUrl":"https://madie.cms.gov/Practitioner/practitioner-123456","resource":{"resourceType":"Practitioner","id":"f9d3085f-6e47-4296-aa4d-5be85a71fda7","identifier":[{"system":"http://hl7.org/fhir/sid/us-npi","value":"123456"}],"name":[{"family":"Evil","prefix":["Dr"]}]},"request":{"method":"PUT","url":"Practitioner/f9d3085f-6e47-4296-aa4d-5be85a71fda7"}},{"fullUrl":"https://madie.cms.gov/MeasureReport/9ad6f0f0-950e-406f-9775-cf47100756fd","resource":{"resourceType":"MeasureReport","id":"9ad6f0f0-950e-406f-9775-cf47100756fd","meta":{"profile":["http://hl7.org/fhir/us/cqfmeasures/StructureDefinition/test-case-cqfm"]},"contained":[{"resourceType":"Parameters","id":"97d8f862-2165-47ff-87db-8aaa18d0ecb9-parameters","parameter":[{"name":"subject","valueString":"145ddce1-5ecd-4bcb-b58d-6c39b55e4f54"}]}],"extension":[{"url":"http://hl7.org/fhir/us/cqfmeasures/StructureDefinition/cqfm-inputParameters","valueReference":{"reference":"#97d8f862-2165-47ff-87db-8aaa18d0ecb9-parameters"}},{"url":"http://hl7.org/fhir/us/cqfmeasures/StructureDefinition/cqfm-testCaseDescription","valueMarkdown":"encounter ends before MP \n"}],"modifierExtension":[{"url":"http://hl7.org/fhir/us/cqfmeasures/StructureDefinition/cqfm-isTestCase","valueBoolean":true}],"status":"complete","type":"individual","measure":"https://madie.cms.gov/Measure/AntithromboticTherapyByEndofHospitalDay2FHIR","period":{"start":"2025-01-01","end":"2025-12-31"},"group":[{"population":[{"code":{"coding":[{"system":"http://terminology.hl7.org/CodeSystem/measure-population","code":"initial-population","display":"Initial Population"}]},"count":0},{"code":{"coding":[{"system":"http://terminology.hl7.org/CodeSystem/measure-population","code":"denominator","display":"Denominator"}]},"count":0},{"code":{"coding":[{"system":"http://terminology.hl7.org/CodeSystem/measure-population","code":"denominator-exclusion","display":"Denominator Exclusion"}]},"count":0},{"code":{"coding":[{"system":"http://terminology.hl7.org/CodeSystem/measure-population","code":"numerator","display":"Numerator"}]},"count":0},{"code":{"coding":[{"system":"http://terminology.hl7.org/CodeSystem/measure-population","code":"denominator-exception","display":"Denominator Exception"}]},"count":0}]}]},"request":{"method":"PUT","url":"MeasureReport/9ad6f0f0-950e-406f-9775-cf47100756fd"}}]}