{"resourceType":"Bundle","id":"tests-1216ea1e-aee7-4c75-8e5d-7f712f6ba3f7-bundle","type":"transaction","entry":[{"fullUrl":"https://madie.cms.gov/Patient/1216ea1e-aee7-4c75-8e5d-7f712f6ba3f7","resource":{"resourceType":"Patient","id":"1216ea1e-aee7-4c75-8e5d-7f712f6ba3f7","meta":{"profile":["http://hl7.org/fhir/us/qicore/StructureDefinition/qicore-patient"]},"text":{"status":"generated","div":"<div xmlns=\"http://www.w3.org/1999/xhtml\"><div class=\"hapiHeaderText\">INRDayOfObs_ED&lt;1hrDayOfObs&gt;1hrDayAftBFEnc2DayAft <b>DENEXCEPFAIL </b></div><table class=\"hapiPropertyTable\"><tbody><tr><td>Identifier</td><td>5057820c9f8087deb980c05c7852ae7b709590e0ebc4e0ba69449350b68c9e65</td></tr><tr><td>Date of birth</td><td><span>26 September 1975</span></td></tr></tbody></table></div>"},"extension":[{"url":"http://hl7.org/fhir/us/core/StructureDefinition/us-core-race","extension":[{"url":"ombCategory","valueCoding":{"system":"urn:oid:2.16.840.1.113883.6.238","code":"2054-5","display":"Black or African American","userSelected":true}},{"url":"text","valueString":"Black or African American"}]},{"url":"http://hl7.org/fhir/us/core/StructureDefinition/us-core-ethnicity","extension":[{"url":"ombCategory","valueCoding":{"system":"urn:oid:2.16.840.1.113883.6.238","code":"2186-5","display":"Not Hispanic or Latino","userSelected":true}},{"url":"text","valueString":"Not Hispanic or Latino"}]}],"identifier":[{"type":{"coding":[{"system":"http://terminology.hl7.org/CodeSystem/v2-0203","code":"MR"}]},"system":"https://bonnie-fhir.healthit.gov/","value":"60f82c2f98086b570510e2af"}],"active":true,"name":[{"use":"usual","family":"DENEXCEPFail","given":["INRDayOfObs_ED<1hrDayOfObs>1hrDayAftBFEnc2DayAft"]}],"gender":"female","birthDate":"1975-09-26"},"request":{"method":"PUT","url":"Patient/1216ea1e-aee7-4c75-8e5d-7f712f6ba3f7"}},{"fullUrl":"https://madie.cms.gov/Encounter/5c954894b848462de0ae62f6","resource":{"resourceType":"Encounter","id":"54a2aecb-68ac-423a-a276-6eee44813ed9","meta":{"profile":["http://hl7.org/fhir/us/qicore/StructureDefinition/qicore-encounter"]},"status":"finished","class":{"system":"http://terminology.hl7.org/CodeSystem/v3-ActCode","code":"EMER","display":"emergency"},"type":[{"coding":[{"system":"http://snomed.info/sct","code":"4525004"}]}],"subject":{"reference":"Patient/1216ea1e-aee7-4c75-8e5d-7f712f6ba3f7"},"period":{"start":"2025-10-10T06:15:00.000+00:00","end":"2025-10-10T23:59:00.000+00:00"},"length":{"value":0,"unit":"days"}},"request":{"method":"PUT","url":"Encounter/54a2aecb-68ac-423a-a276-6eee44813ed9"}},{"fullUrl":"https://madie.cms.gov/Encounter/5c954894b848462de0ae62f7","resource":{"resourceType":"Encounter","id":"286c4b3d-c607-495f-8b70-6b2b6521b918","meta":{"profile":["http://hl7.org/fhir/us/qicore/StructureDefinition/qicore-encounter"]},"status":"finished","class":{"system":"http://terminology.hl7.org/CodeSystem/v3-ActCode","code":"OBSENC","display":"observation encounter"},"type":[{"coding":[{"system":"http://snomed.info/sct","code":"448851000124103"}]}],"subject":{"reference":"Patient/1216ea1e-aee7-4c75-8e5d-7f712f6ba3f7"},"period":{"start":"2025-10-11T01:00:00.000+00:00","end":"2025-10-11T23:59:00.000+00:00"},"length":{"value":0,"unit":"days"}},"request":{"method":"PUT","url":"Encounter/286c4b3d-c607-495f-8b70-6b2b6521b918"}},{"fullUrl":"https://madie.cms.gov/Encounter/5c954894b848462de0ae62f8","resource":{"resourceType":"Encounter","id":"0f0cef24-cefd-4f0c-89bf-d9fb558cb5f2","meta":{"profile":["http://hl7.org/fhir/us/qicore/StructureDefinition/qicore-encounter"]},"status":"finished","class":{"system":"http://terminology.hl7.org/CodeSystem/v3-ActCode","code":"IMP","display":"inpatient encounter","userSelected":true},"type":[{"coding":[{"system":"http://snomed.info/sct","code":"32485007"}]}],"subject":{"reference":"Patient/1216ea1e-aee7-4c75-8e5d-7f712f6ba3f7"},"period":{"start":"2025-10-12T01:00:00.000+00:00","end":"2025-10-15T11:30:00.000+00:00"},"length":{"value":3,"unit":"days"},"diagnosis":[{"condition":{"reference":"Condition/ischemic-stroke-8b60"},"use":{"coding":[{"system":"http://terminology.hl7.org/CodeSystem/diagnosis-role","code":"billing","display":"Billing"}]},"rank":1}]},"request":{"method":"PUT","url":"Encounter/0f0cef24-cefd-4f0c-89bf-d9fb558cb5f2"}},{"fullUrl":"https://madie.cms.gov/Observation/5c954894b848462de0ae62fa","resource":{"resourceType":"Observation","id":"2400798d-386c-48d5-883c-17ac8e0026d1","meta":{"profile":["http://hl7.org/fhir/us/qicore/StructureDefinition/qicore-observation"]},"status":"final","category":[{"coding":[{"system":"http://terminology.hl7.org/CodeSystem/observation-category","code":"laboratory","display":"Laboratory"}]}],"code":{"coding":[{"system":"http://loinc.org","code":"34714-6"}]},"subject":{"reference":"Patient/1216ea1e-aee7-4c75-8e5d-7f712f6ba3f7"},"effectiveDateTime":"2025-10-11T08:00:00.000+00:00","issued":"2025-10-11T01:00:00.000+00:00","valueQuantity":{"value":3.6}},"request":{"method":"PUT","url":"Observation/2400798d-386c-48d5-883c-17ac8e0026d1"}},{"fullUrl":"https://madie.cms.gov/Coverage/5e20a3711c76ba6c5896ec12","resource":{"resourceType":"Coverage","id":"0c5acbe1-5adb-49b9-9663-fcdde97d3fa5","status":"active","beneficiary":{"reference":"Patient/1216ea1e-aee7-4c75-8e5d-7f712f6ba3f7"},"period":{"start":"1975-09-26T08:00:00+00:00"},"payor":[{"reference":"Organization/4b5a882f-1f43-485c-85c6-f5ad2337d5b1"}]},"request":{"method":"PUT","url":"Coverage/0c5acbe1-5adb-49b9-9663-fcdde97d3fa5"}},{"fullUrl":"https://madie.cms.gov/Condition/ischemic-stroke-8b60","resource":{"resourceType":"Condition","id":"f038529d-018e-4a61-bd45-4e8d9fa47c65","meta":{"profile":["http://hl7.org/fhir/us/qicore/StructureDefinition/qicore-condition"]},"clinicalStatus":{"coding":[{"system":"http://terminology.hl7.org/CodeSystem/condition-clinical","code":"active"}]},"verificationStatus":{"coding":[{"system":"http://terminology.hl7.org/CodeSystem/condition-ver-status","code":"confirmed"}]},"category":[{"coding":[{"system":"http://terminology.hl7.org/CodeSystem/condition-category","code":"encounter-diagnosis","display":"Encounter Diagnosis"}]}],"code":{"coding":[{"system":"http://snomed.info/sct","version":"2020-09","code":"111297002","display":"Nonparalytic stroke (disorder)","userSelected":true}]},"subject":{"reference":"Patient/1216ea1e-aee7-4c75-8e5d-7f712f6ba3f7"},"recordedDate":"2025-07-28T08:00:00.000+00:00"},"request":{"method":"PUT","url":"Condition/f038529d-018e-4a61-bd45-4e8d9fa47c65"}},{"fullUrl":"https://madie.cms.gov/Organization/123456","resource":{"resourceType":"Organization","id":"4b5a882f-1f43-485c-85c6-f5ad2337d5b1","meta":{"profile":["http://hl7.org/fhir/us/qicore/StructureDefinition/qicore-organization"]},"identifier":[{"use":"temp","system":"urn:oid:2.16.840.1.113883.4.4","value":"21-3259825"}],"active":true,"type":[{"coding":[{"system":"http://terminology.hl7.org/CodeSystem/organization-type","code":"pay","display":"Payer"}]}],"name":"Blue Cross Blue Shield of Texas","telecom":[{"system":"phone","value":"(+1) 972-766-6900"}],"address":[{"use":"billing","type":"postal","line":["P.O. Box 660044"],"city":"Dallas","state":"TX","postalCode":"75266-0044","country":"USA"}]},"request":{"method":"PUT","url":"Organization/4b5a882f-1f43-485c-85c6-f5ad2337d5b1"}},{"fullUrl":"https://madie.cms.gov/MeasureReport/5e3f031d-c1aa-4f35-982e-2e509978754a","resource":{"resourceType":"MeasureReport","id":"5e3f031d-c1aa-4f35-982e-2e509978754a","meta":{"profile":["http://hl7.org/fhir/us/cqfmeasures/StructureDefinition/test-case-cqfm"]},"contained":[{"resourceType":"Parameters","id":"baca55a1-e379-47a6-95d6-dbeea905cd8a-parameters","parameter":[{"name":"subject","valueString":"1216ea1e-aee7-4c75-8e5d-7f712f6ba3f7"}]}],"extension":[{"url":"http://hl7.org/fhir/us/cqfmeasures/StructureDefinition/cqfm-inputParameters","valueReference":{"reference":"#baca55a1-e379-47a6-95d6-dbeea905cd8a-parameters"}},{"url":"http://hl7.org/fhir/us/cqfmeasures/StructureDefinition/cqfm-testCaseDescription","valueMarkdown":"Patient receives INR day of Obs, ED ends 1 min before Obs start at midnight, Obs ends 61 min before IP start at midnight the next day. Testing Day of operator with HospitalizationWithObservation function.\n"}],"modifierExtension":[{"url":"http://hl7.org/fhir/us/cqfmeasures/StructureDefinition/cqfm-isTestCase","valueBoolean":true}],"status":"complete","type":"individual","measure":"https://madie.cms.gov/Measure/AntithromboticTherapyByEndofHospitalDay2FHIR","period":{"start":"2025-01-01","end":"2025-12-31"},"group":[{"population":[{"code":{"coding":[{"system":"http://terminology.hl7.org/CodeSystem/measure-population","code":"initial-population","display":"Initial Population"}]},"count":1},{"code":{"coding":[{"system":"http://terminology.hl7.org/CodeSystem/measure-population","code":"denominator","display":"Denominator"}]},"count":1},{"code":{"coding":[{"system":"http://terminology.hl7.org/CodeSystem/measure-population","code":"denominator-exclusion","display":"Denominator Exclusion"}]},"count":0},{"code":{"coding":[{"system":"http://terminology.hl7.org/CodeSystem/measure-population","code":"numerator","display":"Numerator"}]},"count":0},{"code":{"coding":[{"system":"http://terminology.hl7.org/CodeSystem/measure-population","code":"denominator-exception","display":"Denominator Exception"}]},"count":0}]}]},"request":{"method":"PUT","url":"MeasureReport/5e3f031d-c1aa-4f35-982e-2e509978754a"}}]}