{"resourceType":"Bundle","id":"tests-2a1812bc-465a-438c-934c-e85a3591512a-bundle","type":"transaction","entry":[{"fullUrl":"https://madie.cms.gov/Patient/2a1812bc-465a-438c-934c-e85a3591512a","resource":{"resourceType":"Patient","id":"2a1812bc-465a-438c-934c-e85a3591512a","meta":{"profile":["http://hl7.org/fhir/us/qicore/StructureDefinition/qicore-patient"]},"text":{"status":"generated","div":"<div xmlns=\"http://www.w3.org/1999/xhtml\"><div class=\"hapiHeaderText\">PharmContraDayOfEncStart_NoEDNoObsBFEnc <b>DENEXCEPPASS </b></div><table class=\"hapiPropertyTable\"><tbody><tr><td>Identifier</td><td>23ca8d220e136a05792f06f1300ec35c968458532c76c051729199b6b17df285</td></tr><tr><td>Date of birth</td><td><span>26 September 1975</span></td></tr></tbody></table></div>"},"extension":[{"url":"http://hl7.org/fhir/us/core/StructureDefinition/us-core-race","extension":[{"url":"ombCategory","valueCoding":{"system":"urn:oid:2.16.840.1.113883.6.238","code":"2054-5","display":"Black or African American","userSelected":true}},{"url":"text","valueString":"Black or African American"}]},{"url":"http://hl7.org/fhir/us/core/StructureDefinition/us-core-ethnicity","extension":[{"url":"ombCategory","valueCoding":{"system":"urn:oid:2.16.840.1.113883.6.238","code":"2186-5","display":"Not Hispanic or Latino","userSelected":true}},{"url":"text","valueString":"Not Hispanic or Latino"}]}],"identifier":[{"type":{"coding":[{"system":"http://terminology.hl7.org/CodeSystem/v2-0203","code":"MR"}]},"system":"https://bonnie-fhir.healthit.gov/","value":"60f82c2f98086b570510e2a0"}],"active":true,"name":[{"use":"usual","family":"DENEXCEPPass","given":["PharmContraDayOfEncStart_NoEDNoObsBFEnc"]}],"gender":"female","birthDate":"1975-09-26"},"request":{"method":"PUT","url":"Patient/2a1812bc-465a-438c-934c-e85a3591512a"}},{"fullUrl":"https://madie.cms.gov/Encounter/5c954894b848462de0ae62b3","resource":{"resourceType":"Encounter","id":"5c954894b848462de0ae62b3","meta":{"profile":["http://hl7.org/fhir/us/qicore/StructureDefinition/qicore-encounter"]},"status":"finished","class":{"system":"http://terminology.hl7.org/CodeSystem/v3-ActCode","code":"IMP","display":"inpatient encounter","userSelected":true},"type":[{"coding":[{"system":"http://snomed.info/sct","code":"32485007"}]}],"subject":{"reference":"Patient/2a1812bc-465a-438c-934c-e85a3591512a"},"period":{"start":"2025-10-10T09:00:00+00:00","end":"2025-10-12T11:15:00+00:00"},"length":{"value":2.0,"unit":"days"},"diagnosis":[{"condition":{"reference":"Condition/ischemic-stroke-9f0b"},"use":{"coding":[{"system":"http://snomed.info/sct","code":"111297002","display":"Ischemic Stroke"}]},"rank":1}]},"request":{"method":"PUT","url":"Encounter/5c954894b848462de0ae62b3"}},{"fullUrl":"https://madie.cms.gov/MedicationAdministration/5de6c4035b87f90000eaf319","resource":{"resourceType":"MedicationAdministration","id":"5de6c4035b87f90000eaf319","meta":{"profile":["http://hl7.org/fhir/us/qicore/StructureDefinition/qicore-medicationadministration"]},"status":"completed","medicationCodeableConcept":{"coding":[{"system":"http://www.nlm.nih.gov/research/umls/rxnorm","code":"855812","display":"prasugrel 10 MG Oral Tablet","userSelected":true}]},"subject":{"reference":"Patient/2a1812bc-465a-438c-934c-e85a3591512a"},"effectivePeriod":{"start":"2025-10-10T09:00:00+00:00"}},"request":{"method":"PUT","url":"MedicationAdministration/5de6c4035b87f90000eaf319"}},{"fullUrl":"https://madie.cms.gov/Coverage/5e20a36f1c76ba6c5896ec03","resource":{"resourceType":"Coverage","id":"5e20a36f1c76ba6c5896ec03","status":"active","beneficiary":{"reference":"Patient/2a1812bc-465a-438c-934c-e85a3591512a"},"period":{"start":"1975-09-26T08:00:00+00:00"},"payor":[{"reference":"Organization/Org-123456"}]},"request":{"method":"PUT","url":"Coverage/5e20a36f1c76ba6c5896ec03"}},{"fullUrl":"https://madie.cms.gov/Condition/ischemic-stroke-9f0b","resource":{"resourceType":"Condition","id":"ischemic-stroke-9f0b","meta":{"profile":["http://hl7.org/fhir/us/qicore/StructureDefinition/qicore-condition"]},"clinicalStatus":{"coding":[{"system":"http://terminology.hl7.org/CodeSystem/condition-clinical","code":"active"}]},"verificationStatus":{"coding":[{"system":"http://terminology.hl7.org/CodeSystem/condition-ver-status","code":"confirmed"}]},"category":[{"coding":[{"system":"http://terminology.hl7.org/CodeSystem/condition-category","code":"encounter-diagnosis","display":"Encounter Diagnosis"}]}],"code":{"coding":[{"system":"http://snomed.info/sct","version":"2020-09","code":"111297002","display":"Nonparalytic stroke (disorder)","userSelected":true}]},"subject":{"reference":"Patient/2a1812bc-465a-438c-934c-e85a3591512a"},"recordedDate":"2025-08-06T08:00:00.000+00:00"},"request":{"method":"PUT","url":"Condition/ischemic-stroke-9f0b"}},{"fullUrl":"https://madie.cms.gov/Organization/123456","resource":{"resourceType":"Organization","id":"Org-123456","meta":{"profile":["http://hl7.org/fhir/us/qicore/StructureDefinition/qicore-organization"]},"identifier":[{"use":"temp","system":"urn:oid:2.16.840.1.113883.4.4","value":"21-3259825"}],"active":true,"type":[{"coding":[{"system":"http://terminology.hl7.org/CodeSystem/organization-type","code":"pay","display":"Payer"}]}],"name":"Blue Cross Blue Shield of Texas","telecom":[{"system":"phone","value":"(+1) 972-766-6900"}],"address":[{"use":"billing","type":"postal","line":["P.O. Box 660044"],"city":"Dallas","state":"TX","postalCode":"75266-0044","country":"USA"}]},"request":{"method":"PUT","url":"Organization/Org-123456"}},{"fullUrl":"https://madie.cms.gov/MeasureReport/27698045-f1b0-4f19-8821-3909867a6c22","resource":{"resourceType":"MeasureReport","id":"27698045-f1b0-4f19-8821-3909867a6c22","meta":{"profile":["http://hl7.org/fhir/us/cqfmeasures/StructureDefinition/test-case-cqfm"]},"contained":[{"resourceType":"Parameters","id":"e8efd558-46b8-44d6-a047-c0584308b65f-parameters","parameter":[{"name":"subject","valueString":"2a1812bc-465a-438c-934c-e85a3591512a"}]}],"extension":[{"url":"http://hl7.org/fhir/us/cqfmeasures/StructureDefinition/cqfm-inputParameters","valueReference":{"reference":"#e8efd558-46b8-44d6-a047-c0584308b65f-parameters"}},{"url":"http://hl7.org/fhir/us/cqfmeasures/StructureDefinition/cqfm-testCaseDescription","valueMarkdown":"Patient receives Ticagrelor day of IP start. No ED. No Obs. Testing Day of operator with HospitalizationWithObservation function.\n"}],"modifierExtension":[{"url":"http://hl7.org/fhir/us/cqfmeasures/StructureDefinition/cqfm-isTestCase","valueBoolean":true}],"status":"complete","type":"individual","measure":"https://madie.cms.gov/Measure/AntithromboticTherapyByEndofHospitalDay2FHIR","period":{"start":"2025-01-01","end":"2025-12-31"},"group":[{"population":[{"code":{"coding":[{"system":"http://terminology.hl7.org/CodeSystem/measure-population","code":"initial-population","display":"Initial Population"}]},"count":1},{"code":{"coding":[{"system":"http://terminology.hl7.org/CodeSystem/measure-population","code":"denominator","display":"Denominator"}]},"count":1},{"code":{"coding":[{"system":"http://terminology.hl7.org/CodeSystem/measure-population","code":"denominator-exclusion","display":"Denominator Exclusion"}]},"count":0},{"code":{"coding":[{"system":"http://terminology.hl7.org/CodeSystem/measure-population","code":"numerator","display":"Numerator"}]},"count":0},{"code":{"coding":[{"system":"http://terminology.hl7.org/CodeSystem/measure-population","code":"denominator-exception","display":"Denominator Exception"}]},"count":1}]}],"evaluatedResource":[{"reference":"Patient/2a1812bc-465a-438c-934c-e85a3591512a"},{"reference":"Encounter/5c954894b848462de0ae62b3"},{"reference":"MedicationAdministration/5de6c4035b87f90000eaf319"},{"reference":"Coverage/5e20a36f1c76ba6c5896ec03"},{"reference":"Condition/ischemic-stroke-9f0b"},{"reference":"Organization/Org-123456"}]},"request":{"method":"PUT","url":"MeasureReport/27698045-f1b0-4f19-8821-3909867a6c22"}}]}