{"resourceType":"Bundle","id":"tests-fed7bfb0-5746-4029-a64c-f40cc30ce946-bundle","type":"transaction","entry":[{"fullUrl":"https://madie.cms.gov/Patient/fed7bfb0-5746-4029-a64c-f40cc30ce946","resource":{"resourceType":"Patient","id":"fed7bfb0-5746-4029-a64c-f40cc30ce946","meta":{"profile":["http://hl7.org/fhir/us/qicore/StructureDefinition/qicore-patient"]},"text":{"status":"generated","div":"<div xmlns=\"http://www.w3.org/1999/xhtml\"><div class=\"hapiHeaderText\">INRdurED_ED&lt;1hrDayOfObs&gt;1hrBFEncDayAft <b>DENEXCEPFAIL </b></div><table class=\"hapiPropertyTable\"><tbody><tr><td>Identifier</td><td>ecacb2fcf882076a0ba904ca23727e8c250c894a0d23c527fc388c89a7abc3cd</td></tr><tr><td>Date of birth</td><td><span>26 September 1975</span></td></tr></tbody></table></div>"},"extension":[{"url":"http://hl7.org/fhir/us/core/StructureDefinition/us-core-race","extension":[{"url":"ombCategory","valueCoding":{"system":"urn:oid:2.16.840.1.113883.6.238","code":"2054-5","display":"Black or African American","userSelected":true}},{"url":"text","valueString":"Black or African American"}]},{"url":"http://hl7.org/fhir/us/core/StructureDefinition/us-core-ethnicity","extension":[{"url":"ombCategory","valueCoding":{"system":"urn:oid:2.16.840.1.113883.6.238","code":"2186-5","display":"Not Hispanic or Latino","userSelected":true}},{"url":"text","valueString":"Not Hispanic or Latino"}]}],"identifier":[{"type":{"coding":[{"system":"http://terminology.hl7.org/CodeSystem/v2-0203","code":"MR"}]},"system":"https://bonnie-fhir.healthit.gov/","value":"60f82c2f98086b570510e2b5"}],"active":true,"name":[{"use":"usual","family":"DENEXCEPFail","given":["INRdurED_ED<1hrDayOfObs>1hrBFEncDayAft"]}],"gender":"female","birthDate":"1975-09-26"},"request":{"method":"PUT","url":"Patient/fed7bfb0-5746-4029-a64c-f40cc30ce946"}},{"fullUrl":"https://madie.cms.gov/Encounter/5c954894b848462de0ae6316","resource":{"resourceType":"Encounter","id":"549b6ccb-13e9-4c7c-b5a1-033aa7543f19","meta":{"profile":["http://hl7.org/fhir/us/qicore/StructureDefinition/qicore-encounter"]},"status":"finished","class":{"system":"http://terminology.hl7.org/CodeSystem/v3-ActCode","code":"EMER","display":"emergency"},"type":[{"coding":[{"system":"http://snomed.info/sct","code":"4525004"}]}],"subject":{"reference":"Patient/fed7bfb0-5746-4029-a64c-f40cc30ce946"},"period":{"start":"2025-10-10T06:15:00.000+00:00","end":"2025-10-10T22:59:00.000+00:00"},"length":{"value":0,"unit":"days"}},"request":{"method":"PUT","url":"Encounter/549b6ccb-13e9-4c7c-b5a1-033aa7543f19"}},{"fullUrl":"https://madie.cms.gov/Encounter/5c954894b848462de0ae6317","resource":{"resourceType":"Encounter","id":"90d84f04-b5a5-4db8-b4e2-369739fe9865","meta":{"profile":["http://hl7.org/fhir/us/qicore/StructureDefinition/qicore-encounter"]},"status":"finished","class":{"system":"http://terminology.hl7.org/CodeSystem/v3-ActCode","code":"OBSENC","display":"observation encounter"},"type":[{"coding":[{"system":"http://snomed.info/sct","code":"448851000124103"}]}],"subject":{"reference":"Patient/fed7bfb0-5746-4029-a64c-f40cc30ce946"},"period":{"start":"2025-10-11T00:00:00.000+00:00","end":"2025-10-11T00:59:00.000+00:00"},"length":{"value":0,"unit":"days"}},"request":{"method":"PUT","url":"Encounter/90d84f04-b5a5-4db8-b4e2-369739fe9865"}},{"fullUrl":"https://madie.cms.gov/Encounter/5c954894b848462de0ae6318","resource":{"resourceType":"Encounter","id":"f8bd4313-910b-49f8-8a74-6c0ae6b94d41","meta":{"profile":["http://hl7.org/fhir/us/qicore/StructureDefinition/qicore-encounter"]},"status":"finished","class":{"system":"http://terminology.hl7.org/CodeSystem/v3-ActCode","code":"IMP","display":"inpatient encounter","userSelected":true},"type":[{"coding":[{"system":"http://snomed.info/sct","code":"32485007"}]}],"subject":{"reference":"Patient/fed7bfb0-5746-4029-a64c-f40cc30ce946"},"period":{"start":"2025-10-11T02:00:00.000+00:00","end":"2025-10-15T11:30:00.000+00:00"},"length":{"value":4,"unit":"days"},"diagnosis":[{"condition":{"reference":"Condition/ischemic-stroke-8b62"},"use":{"coding":[{"system":"http://terminology.hl7.org/CodeSystem/diagnosis-role","code":"billing","display":"Billing"}]},"rank":1}]},"request":{"method":"PUT","url":"Encounter/f8bd4313-910b-49f8-8a74-6c0ae6b94d41"}},{"fullUrl":"https://madie.cms.gov/Observation/5c954894b848462de0ae631a","resource":{"resourceType":"Observation","id":"1233c1e2-b21a-41c2-8ea0-61756f693a7f","meta":{"profile":["http://hl7.org/fhir/us/qicore/StructureDefinition/qicore-observation"]},"status":"final","category":[{"coding":[{"system":"http://terminology.hl7.org/CodeSystem/observation-category","code":"laboratory","display":"Laboratory"}]}],"code":{"coding":[{"system":"http://loinc.org","code":"34714-6"}]},"subject":{"reference":"Patient/fed7bfb0-5746-4029-a64c-f40cc30ce946"},"effectiveDateTime":"2025-10-10T06:15:00.000+00:00","issued":"2025-10-10T22:59:00.000+00:00","valueQuantity":{"value":3.6}},"request":{"method":"PUT","url":"Observation/1233c1e2-b21a-41c2-8ea0-61756f693a7f"}},{"fullUrl":"https://madie.cms.gov/Coverage/5e20a3711c76ba6c5896ec18","resource":{"resourceType":"Coverage","id":"4d3ddabc-8648-4a92-816a-27aa8457a2dc","status":"active","beneficiary":{"reference":"Patient/fed7bfb0-5746-4029-a64c-f40cc30ce946"},"period":{"start":"1975-09-26T08:00:00+00:00"},"payor":[{"reference":"Organization/806b0255-13cb-4f2b-9412-571554dd2169"}]},"request":{"method":"PUT","url":"Coverage/4d3ddabc-8648-4a92-816a-27aa8457a2dc"}},{"fullUrl":"https://madie.cms.gov/Condition/ischemic-stroke-8b62","resource":{"resourceType":"Condition","id":"0bd08952-0f50-4305-adc8-89b43aab8a9a","meta":{"profile":["http://hl7.org/fhir/us/qicore/StructureDefinition/qicore-condition"]},"clinicalStatus":{"coding":[{"system":"http://terminology.hl7.org/CodeSystem/condition-clinical","code":"active"}]},"verificationStatus":{"coding":[{"system":"http://terminology.hl7.org/CodeSystem/condition-ver-status","code":"confirmed"}]},"category":[{"coding":[{"system":"http://terminology.hl7.org/CodeSystem/condition-category","code":"encounter-diagnosis","display":"Encounter Diagnosis"}]}],"code":{"coding":[{"system":"http://snomed.info/sct","version":"2020-09","code":"111297002","display":"Nonparalytic stroke (disorder)","userSelected":true}]},"subject":{"reference":"Patient/fed7bfb0-5746-4029-a64c-f40cc30ce946"},"recordedDate":"2025-07-28T08:00:00.000+00:00"},"request":{"method":"PUT","url":"Condition/0bd08952-0f50-4305-adc8-89b43aab8a9a"}},{"fullUrl":"https://madie.cms.gov/Organization/123456","resource":{"resourceType":"Organization","id":"806b0255-13cb-4f2b-9412-571554dd2169","meta":{"profile":["http://hl7.org/fhir/us/qicore/StructureDefinition/qicore-organization"]},"identifier":[{"use":"temp","system":"urn:oid:2.16.840.1.113883.4.4","value":"21-3259825"}],"active":true,"type":[{"coding":[{"system":"http://terminology.hl7.org/CodeSystem/organization-type","code":"pay","display":"Payer"}]}],"name":"Blue Cross Blue Shield of Texas","telecom":[{"system":"phone","value":"(+1) 972-766-6900"}],"address":[{"use":"billing","type":"postal","line":["P.O. Box 660044"],"city":"Dallas","state":"TX","postalCode":"75266-0044","country":"USA"}]},"request":{"method":"PUT","url":"Organization/806b0255-13cb-4f2b-9412-571554dd2169"}},{"fullUrl":"https://madie.cms.gov/MeasureReport/c4d4089a-cca1-412a-a296-ff7c9f17ec8c","resource":{"resourceType":"MeasureReport","id":"c4d4089a-cca1-412a-a296-ff7c9f17ec8c","meta":{"profile":["http://hl7.org/fhir/us/cqfmeasures/StructureDefinition/test-case-cqfm"]},"contained":[{"resourceType":"Parameters","id":"8ebe1ce5-5134-44c7-9e70-98bbc3abb2de-parameters","parameter":[{"name":"subject","valueString":"fed7bfb0-5746-4029-a64c-f40cc30ce946"}]}],"extension":[{"url":"http://hl7.org/fhir/us/cqfmeasures/StructureDefinition/cqfm-inputParameters","valueReference":{"reference":"#8ebe1ce5-5134-44c7-9e70-98bbc3abb2de-parameters"}},{"url":"http://hl7.org/fhir/us/cqfmeasures/StructureDefinition/cqfm-testCaseDescription","valueMarkdown":"Patient receives INR of 3.6 the day of ED. ED ends 1 minute before Obs, Obs ends 61 before IP the next day at midnight. Testing Day of operator with HospitalizationWithObservation function.\n"}],"modifierExtension":[{"url":"http://hl7.org/fhir/us/cqfmeasures/StructureDefinition/cqfm-isTestCase","valueBoolean":true}],"status":"complete","type":"individual","measure":"https://madie.cms.gov/Measure/AntithromboticTherapyByEndofHospitalDay2FHIR","period":{"start":"2025-01-01","end":"2025-12-31"},"group":[{"population":[{"code":{"coding":[{"system":"http://terminology.hl7.org/CodeSystem/measure-population","code":"initial-population","display":"Initial Population"}]},"count":1},{"code":{"coding":[{"system":"http://terminology.hl7.org/CodeSystem/measure-population","code":"denominator","display":"Denominator"}]},"count":1},{"code":{"coding":[{"system":"http://terminology.hl7.org/CodeSystem/measure-population","code":"denominator-exclusion","display":"Denominator Exclusion"}]},"count":0},{"code":{"coding":[{"system":"http://terminology.hl7.org/CodeSystem/measure-population","code":"numerator","display":"Numerator"}]},"count":0},{"code":{"coding":[{"system":"http://terminology.hl7.org/CodeSystem/measure-population","code":"denominator-exception","display":"Denominator Exception"}]},"count":0}]}]},"request":{"method":"PUT","url":"MeasureReport/c4d4089a-cca1-412a-a296-ff7c9f17ec8c"}}]}