{"resourceType":"Bundle","id":"tests-edd8668f-d541-4869-9bb6-02e9e2c2509d-bundle","type":"transaction","entry":[{"fullUrl":"https://madie.cms.gov/Patient/edd8668f-d541-4869-9bb6-02e9e2c2509d","resource":{"resourceType":"Patient","id":"edd8668f-d541-4869-9bb6-02e9e2c2509d","meta":{"profile":["http://hl7.org/fhir/us/qicore/StructureDefinition/qicore-patient"]},"text":{"status":"generated","div":"<div xmlns=\"http://www.w3.org/1999/xhtml\"><div class=\"hapiHeaderText\">CMPDuringDiffEDTestOccurr <b>DENEXPASS </b></div><table class=\"hapiPropertyTable\"><tbody><tr><td>Identifier</td><td>fcf1262e7fbb728ee91bb3f762114a06e0ac67ead4b8481c3330832671d831a7</td></tr><tr><td>Date of birth</td><td><span>26 September 1975</span></td></tr></tbody></table></div>"},"extension":[{"url":"http://hl7.org/fhir/us/core/StructureDefinition/us-core-race","extension":[{"url":"ombCategory","valueCoding":{"system":"urn:oid:2.16.840.1.113883.6.238","code":"2054-5","display":"Black or African American","userSelected":true}},{"url":"text","valueString":"Black or African American"}]},{"url":"http://hl7.org/fhir/us/core/StructureDefinition/us-core-ethnicity","extension":[{"url":"ombCategory","valueCoding":{"system":"urn:oid:2.16.840.1.113883.6.238","code":"2186-5","display":"Not Hispanic or Latino","userSelected":true}},{"url":"text","valueString":"Not Hispanic or Latino"}]}],"identifier":[{"type":{"coding":[{"system":"http://terminology.hl7.org/CodeSystem/v2-0203","code":"MR"}]},"system":"https://bonnie-fhir.healthit.gov/","value":"60f82c2f98086b570510e2bc"}],"active":true,"name":[{"use":"usual","family":"DENEXPass","given":["CMPDuringDiffEDTestOccurr"]}],"gender":"female","birthDate":"1975-09-26"},"request":{"method":"PUT","url":"Patient/edd8668f-d541-4869-9bb6-02e9e2c2509d"}},{"fullUrl":"https://madie.cms.gov/Encounter/5ca4c3dfb8484613a55529cc","resource":{"resourceType":"Encounter","id":"8b2c9aae-981c-4467-99c7-7180fa02d97e","meta":{"profile":["http://hl7.org/fhir/us/qicore/StructureDefinition/qicore-encounter"]},"status":"finished","class":{"system":"http://terminology.hl7.org/CodeSystem/v3-ActCode","code":"EMER","display":"emergency","userSelected":true},"type":[{"coding":[{"system":"http://snomed.info/sct","code":"4525004"}]}],"subject":{"reference":"Patient/edd8668f-d541-4869-9bb6-02e9e2c2509d"},"period":{"start":"2025-10-11T23:59:00+00:00","end":"2025-10-12T00:06:00+00:00"}},"request":{"method":"PUT","url":"Encounter/8b2c9aae-981c-4467-99c7-7180fa02d97e"}},{"fullUrl":"https://madie.cms.gov/Encounter/5ca4c3dfb8484613a55529cd","resource":{"resourceType":"Encounter","id":"664b98fb-8415-49bb-9d99-8b572e0db22e","meta":{"profile":["http://hl7.org/fhir/us/qicore/StructureDefinition/qicore-encounter"]},"status":"finished","class":{"system":"http://terminology.hl7.org/CodeSystem/v3-ActCode","code":"IMP","display":"inpatient encounter","userSelected":true},"type":[{"coding":[{"system":"http://snomed.info/sct","code":"32485007"}]}],"subject":{"reference":"Patient/edd8668f-d541-4869-9bb6-02e9e2c2509d"},"period":{"start":"2025-10-12T06:16:00+00:00","end":"2025-10-16T06:31:00+00:00"},"length":{"value":4,"unit":"days"},"diagnosis":[{"condition":{"reference":"Condition/ischemic-stroke-8a9f"},"use":{"coding":[{"system":"http://terminology.hl7.org/CodeSystem/diagnosis-role","code":"billing","display":"Billing"}]},"rank":1}]},"request":{"method":"PUT","url":"Encounter/664b98fb-8415-49bb-9d99-8b572e0db22e"}},{"fullUrl":"https://madie.cms.gov/Procedure/5ca4c3dfb8484613a55529cb","resource":{"resourceType":"Procedure","id":"44cd9b1e-f1de-4199-b567-a28946291b13","meta":{"profile":["http://hl7.org/fhir/us/qicore/StructureDefinition/qicore-procedure"]},"extension":[{"url":"http://hl7.org/fhir/us/qicore/StructureDefinition/qicore-recorded","valueDateTime":"2025-11-19T09:35:00-04:00"}],"status":"completed","code":{"coding":[{"system":"http://snomed.info/sct","code":"133918004"}]},"subject":{"reference":"Patient/edd8668f-d541-4869-9bb6-02e9e2c2509d"},"performedPeriod":{"start":"2025-10-12T00:00:00+00:00"}},"request":{"method":"PUT","url":"Procedure/44cd9b1e-f1de-4199-b567-a28946291b13"}},{"fullUrl":"https://madie.cms.gov/Coverage/5e20a3721c76ba6c5896ec1f","resource":{"resourceType":"Coverage","id":"24f64a06-6cd3-4a0f-9ba8-f16201819438","status":"active","beneficiary":{"reference":"Patient/edd8668f-d541-4869-9bb6-02e9e2c2509d"},"period":{"start":"1975-09-26T08:00:00+00:00"},"payor":[{"reference":"Organization/4b5a882f-1f43-485c-85c6-f5ad2337d5b1"}]},"request":{"method":"PUT","url":"Coverage/24f64a06-6cd3-4a0f-9ba8-f16201819438"}},{"fullUrl":"https://madie.cms.gov/Condition/ischemic-stroke-8a9f","resource":{"resourceType":"Condition","id":"5ca253b3-3bdf-40d8-8d00-1cfb14a08e86","meta":{"profile":["http://hl7.org/fhir/us/qicore/StructureDefinition/qicore-condition"]},"clinicalStatus":{"coding":[{"system":"http://terminology.hl7.org/CodeSystem/condition-clinical","code":"active"}]},"verificationStatus":{"coding":[{"system":"http://terminology.hl7.org/CodeSystem/condition-ver-status","code":"confirmed"}]},"category":[{"coding":[{"system":"http://terminology.hl7.org/CodeSystem/condition-category","code":"encounter-diagnosis","display":"Encounter Diagnosis"}]}],"code":{"coding":[{"system":"http://snomed.info/sct","version":"2020-09","code":"111297002","display":"Nonparalytic stroke (disorder)","userSelected":true}]},"subject":{"reference":"Patient/edd8668f-d541-4869-9bb6-02e9e2c2509d"},"recordedDate":"2025-08-13T08:00:00.000+00:00"},"request":{"method":"PUT","url":"Condition/5ca253b3-3bdf-40d8-8d00-1cfb14a08e86"}},{"fullUrl":"https://madie.cms.gov/Organization/123456","resource":{"resourceType":"Organization","id":"4b5a882f-1f43-485c-85c6-f5ad2337d5b1","meta":{"profile":["http://hl7.org/fhir/us/qicore/StructureDefinition/qicore-organization"]},"identifier":[{"use":"temp","system":"urn:oid:2.16.840.1.113883.4.4","value":"21-3259825"}],"active":true,"type":[{"coding":[{"system":"http://terminology.hl7.org/CodeSystem/organization-type","code":"pay","display":"Payer"}]}],"name":"Blue Cross Blue Shield of Texas","telecom":[{"system":"phone","value":"(+1) 972-766-6900"}],"address":[{"use":"billing","type":"postal","line":["P.O. Box 660044"],"city":"Dallas","state":"TX","postalCode":"75266-0044","country":"USA"}]},"request":{"method":"PUT","url":"Organization/4b5a882f-1f43-485c-85c6-f5ad2337d5b1"}},{"fullUrl":"https://madie.cms.gov/MeasureReport/3daa890f-a29e-435d-862d-13b7ab776c34","resource":{"resourceType":"MeasureReport","id":"3daa890f-a29e-435d-862d-13b7ab776c34","meta":{"profile":["http://hl7.org/fhir/us/cqfmeasures/StructureDefinition/test-case-cqfm"]},"contained":[{"resourceType":"Parameters","id":"953f771c-06f1-4d57-b21e-88fc61c17564-parameters","parameter":[{"name":"subject","valueString":"edd8668f-d541-4869-9bb6-02e9e2c2509d"}]}],"extension":[{"url":"http://hl7.org/fhir/us/cqfmeasures/StructureDefinition/cqfm-inputParameters","valueReference":{"reference":"#953f771c-06f1-4d57-b21e-88fc61c17564-parameters"}},{"url":"http://hl7.org/fhir/us/cqfmeasures/StructureDefinition/cqfm-testCaseDescription","valueMarkdown":"Patient receives comfort measures performed during a different ED encounter from IP Encounter. Testing multiple occurrences.\n"}],"modifierExtension":[{"url":"http://hl7.org/fhir/us/cqfmeasures/StructureDefinition/cqfm-isTestCase","valueBoolean":true}],"status":"complete","type":"individual","measure":"https://madie.cms.gov/Measure/AntithromboticTherapyByEndofHospitalDay2FHIR","period":{"start":"2025-01-01","end":"2025-12-31"},"group":[{"population":[{"code":{"coding":[{"system":"http://terminology.hl7.org/CodeSystem/measure-population","code":"initial-population","display":"Initial Population"}]},"count":1},{"code":{"coding":[{"system":"http://terminology.hl7.org/CodeSystem/measure-population","code":"denominator","display":"Denominator"}]},"count":1},{"code":{"coding":[{"system":"http://terminology.hl7.org/CodeSystem/measure-population","code":"denominator-exclusion","display":"Denominator Exclusion"}]},"count":1},{"code":{"coding":[{"system":"http://terminology.hl7.org/CodeSystem/measure-population","code":"numerator","display":"Numerator"}]},"count":0},{"code":{"coding":[{"system":"http://terminology.hl7.org/CodeSystem/measure-population","code":"denominator-exception","display":"Denominator Exception"}]},"count":0}]}]},"request":{"method":"PUT","url":"MeasureReport/3daa890f-a29e-435d-862d-13b7ab776c34"}}]}