{"resourceType":"Bundle","id":"tests-f0289acb-3172-4690-8b6a-dbd4d4913db5-bundle","type":"transaction","entry":[{"fullUrl":"https://madie.cms.gov/Patient/f0289acb-3172-4690-8b6a-dbd4d4913db5","resource":{"resourceType":"Patient","id":"f0289acb-3172-4690-8b6a-dbd4d4913db5","meta":{"profile":["http://hl7.org/fhir/us/qicore/StructureDefinition/qicore-patient"]},"text":{"status":"generated","div":"<div xmlns=\"http://www.w3.org/1999/xhtml\"><div class=\"hapiHeaderText\">LOS&lt;2DaysNoEd <b>DENEXPASS </b></div><table class=\"hapiPropertyTable\"><tbody><tr><td>Identifier</td><td>4fd55685c1a03f29e7785ea7ae3bc81a</td></tr><tr><td>Date of birth</td><td><span>26 September 1975</span></td></tr></tbody></table></div>"},"extension":[{"url":"http://hl7.org/fhir/us/core/StructureDefinition/us-core-race","extension":[{"url":"ombCategory","valueCoding":{"system":"urn:oid:2.16.840.1.113883.6.238","code":"2054-5","display":"Black or African American","userSelected":true}},{"url":"text","valueString":"Black or African American"}]},{"url":"http://hl7.org/fhir/us/core/StructureDefinition/us-core-ethnicity","extension":[{"url":"ombCategory","valueCoding":{"system":"urn:oid:2.16.840.1.113883.6.238","code":"2186-5","display":"Not Hispanic or Latino","userSelected":true}},{"url":"text","valueString":"Not Hispanic or Latino"}]}],"identifier":[{"type":{"coding":[{"system":"http://terminology.hl7.org/CodeSystem/v2-0203","code":"MR"}]},"system":"https://bonnie-fhir.healthit.gov/","value":"60f82c2e98086b570510e27c"}],"active":true,"name":[{"use":"usual","family":"DENEXPass","given":["LOS<2DaysNoEd"]}],"gender":"female","birthDate":"1975-09-26"},"request":{"method":"PUT","url":"Patient/f0289acb-3172-4690-8b6a-dbd4d4913db5"}},{"fullUrl":"https://madie.cms.gov/Encounter/5c954893b848462de0ae6236","resource":{"resourceType":"Encounter","id":"5c954893b848462de0ae6236","meta":{"profile":["http://hl7.org/fhir/us/qicore/StructureDefinition/qicore-encounter"]},"status":"finished","class":{"system":"http://terminology.hl7.org/CodeSystem/v3-ActCode","code":"IMP","display":"inpatient encounter"},"type":[{"coding":[{"system":"http://snomed.info/sct","code":"32485007"}]}],"subject":{"reference":"Patient/f0289acb-3172-4690-8b6a-dbd4d4913db5"},"period":{"start":"2025-10-10T09:00:00+00:00","end":"2025-10-11T00:40:00+00:00"},"length":{"value":1.0,"unit":"days"},"diagnosis":[{"condition":{"reference":"Condition/ischemic-stroke-2d5b"},"use":{"coding":[{"system":"http://snomed.info/sct","code":"111297002","display":"Ischemic Stroke"}]},"rank":1}]},"request":{"method":"PUT","url":"Encounter/5c954893b848462de0ae6236"}},{"fullUrl":"https://madie.cms.gov/MedicationAdministration/5c954893b848462de0ae6238","resource":{"resourceType":"MedicationAdministration","id":"5c954893b848462de0ae6238","meta":{"profile":["http://hl7.org/fhir/us/qicore/StructureDefinition/qicore-medicationadministration"]},"status":"completed","medicationCodeableConcept":{"coding":[{"system":"http://www.nlm.nih.gov/research/umls/rxnorm","code":"198466"}]},"subject":{"reference":"Patient/f0289acb-3172-4690-8b6a-dbd4d4913db5"},"effectivePeriod":{"start":"2025-10-11T23:59:00+00:00"}},"request":{"method":"PUT","url":"MedicationAdministration/5c954893b848462de0ae6238"}},{"fullUrl":"https://madie.cms.gov/Coverage/5e20a36b1c76ba6c5896ebdf","resource":{"resourceType":"Coverage","id":"5e20a36b1c76ba6c5896ebdf","status":"active","beneficiary":{"reference":"Patient/f0289acb-3172-4690-8b6a-dbd4d4913db5"},"period":{"start":"1975-09-26T08:00:00+00:00"},"payor":[{"reference":"Organization/Org-123456"}]},"request":{"method":"PUT","url":"Coverage/5e20a36b1c76ba6c5896ebdf"}},{"fullUrl":"https://madie.cms.gov/Condition/ischemic-stroke-2d5b","resource":{"resourceType":"Condition","id":"ischemic-stroke-2d5b","meta":{"profile":["http://hl7.org/fhir/us/qicore/StructureDefinition/qicore-condition"]},"clinicalStatus":{"coding":[{"system":"http://terminology.hl7.org/CodeSystem/condition-clinical","code":"active"}]},"verificationStatus":{"coding":[{"system":"http://terminology.hl7.org/CodeSystem/condition-ver-status","code":"confirmed"}]},"category":[{"coding":[{"system":"http://terminology.hl7.org/CodeSystem/condition-category","code":"encounter-diagnosis","display":"Encounter Diagnosis"}]}],"code":{"coding":[{"system":"http://snomed.info/sct","version":"2020-09","code":"111297002","display":"Nonparalytic stroke (disorder)","userSelected":true}]},"subject":{"reference":"Patient/f0289acb-3172-4690-8b6a-dbd4d4913db5"},"recordedDate":"2025-08-13T08:00:00.000+00:00"},"request":{"method":"PUT","url":"Condition/ischemic-stroke-2d5b"}},{"fullUrl":"https://madie.cms.gov/Organization/123456","resource":{"resourceType":"Organization","id":"Org-123456","meta":{"profile":["http://hl7.org/fhir/us/qicore/StructureDefinition/qicore-organization"]},"identifier":[{"use":"temp","system":"urn:oid:2.16.840.1.113883.4.4","value":"21-3259825"}],"active":true,"type":[{"coding":[{"system":"http://terminology.hl7.org/CodeSystem/organization-type","code":"pay","display":"Payer"}]}],"name":"Blue Cross Blue Shield of Texas","telecom":[{"system":"phone","value":"(+1) 972-766-6900"}],"address":[{"use":"billing","type":"postal","line":["P.O. Box 660044"],"city":"Dallas","state":"TX","postalCode":"75266-0044","country":"USA"}]},"request":{"method":"PUT","url":"Organization/Org-123456"}},{"fullUrl":"https://madie.cms.gov/MeasureReport/00e6b429-378f-4b0f-8835-623ab2d3f2b8","resource":{"resourceType":"MeasureReport","id":"00e6b429-378f-4b0f-8835-623ab2d3f2b8","meta":{"profile":["http://hl7.org/fhir/us/cqfmeasures/StructureDefinition/test-case-cqfm"]},"contained":[{"resourceType":"Parameters","id":"67dd1509-0b8b-41bc-ab4f-bb2836aa4af1-parameters","parameter":[{"name":"subject","valueString":"f0289acb-3172-4690-8b6a-dbd4d4913db5"}]}],"extension":[{"url":"http://hl7.org/fhir/us/cqfmeasures/StructureDefinition/cqfm-inputParameters","valueReference":{"reference":"#67dd1509-0b8b-41bc-ab4f-bb2836aa4af1-parameters"}},{"url":"http://hl7.org/fhir/us/cqfmeasures/StructureDefinition/cqfm-testCaseDescription","valueMarkdown":"LOS <2 days, Patient receives antithrombotic in = 1 day after IP encounter starts. without an Ed visit\n"}],"modifierExtension":[{"url":"http://hl7.org/fhir/us/cqfmeasures/StructureDefinition/cqfm-isTestCase","valueBoolean":true}],"status":"complete","type":"individual","measure":"https://madie.cms.gov/Measure/AntithromboticTherapyByEndofHospitalDay2FHIR","period":{"start":"2025-01-01","end":"2025-12-31"},"group":[{"population":[{"code":{"coding":[{"system":"http://terminology.hl7.org/CodeSystem/measure-population","code":"initial-population","display":"Initial Population"}]},"count":1},{"code":{"coding":[{"system":"http://terminology.hl7.org/CodeSystem/measure-population","code":"denominator","display":"Denominator"}]},"count":1},{"code":{"coding":[{"system":"http://terminology.hl7.org/CodeSystem/measure-population","code":"denominator-exclusion","display":"Denominator Exclusion"}]},"count":1},{"code":{"coding":[{"system":"http://terminology.hl7.org/CodeSystem/measure-population","code":"numerator","display":"Numerator"}]},"count":0},{"code":{"coding":[{"system":"http://terminology.hl7.org/CodeSystem/measure-population","code":"denominator-exception","display":"Denominator Exception"}]},"count":0}]}],"evaluatedResource":[{"reference":"Patient/f0289acb-3172-4690-8b6a-dbd4d4913db5"},{"reference":"Encounter/5c954893b848462de0ae6236"},{"reference":"MedicationAdministration/5c954893b848462de0ae6238"},{"reference":"Coverage/5e20a36b1c76ba6c5896ebdf"},{"reference":"Condition/ischemic-stroke-2d5b"},{"reference":"Organization/Org-123456"}]},"request":{"method":"PUT","url":"MeasureReport/00e6b429-378f-4b0f-8835-623ab2d3f2b8"}}]}