{"resourceType":"Bundle","id":"tests-344ee95d-2e49-480e-97c7-3bbc1360a447-bundle","type":"transaction","entry":[{"fullUrl":"https://madie.cms.gov/Patient/344ee95d-2e49-480e-97c7-3bbc1360a447","resource":{"resourceType":"Patient","id":"344ee95d-2e49-480e-97c7-3bbc1360a447","meta":{"profile":["http://hl7.org/fhir/us/qicore/StructureDefinition/qicore-patient"]},"text":{"status":"generated","div":"<div xmlns=\"http://www.w3.org/1999/xhtml\"><div class=\"hapiHeaderText\">PrincDxHemorragicSTK <b>IPPPASS </b></div><table class=\"hapiPropertyTable\"><tbody><tr><td>Identifier</td><td>605da229b490f1e4edabd2939a433b6f</td></tr><tr><td>Date of birth</td><td><span>20 August 1994</span></td></tr></tbody></table></div>"},"extension":[{"url":"http://hl7.org/fhir/us/core/StructureDefinition/us-core-race","extension":[{"url":"ombCategory","valueCoding":{"system":"urn:oid:2.16.840.1.113883.6.238","code":"1002-5","display":"American Indian or Alaska Native","userSelected":true}},{"url":"text","valueString":"American Indian or Alaska Native"}]},{"url":"http://hl7.org/fhir/us/core/StructureDefinition/us-core-ethnicity","extension":[{"url":"ombCategory","valueCoding":{"system":"urn:oid:2.16.840.1.113883.6.238","code":"2186-5","display":"Not Hispanic or Latino","userSelected":true}},{"url":"text","valueString":"Not Hispanic or Latino"}]}],"identifier":[{"type":{"coding":[{"system":"http://terminology.hl7.org/CodeSystem/v2-0203","code":"MR"}]},"system":"https://bonnie-fhir.healthit.gov/","value":"60f82c2e98086b570510e274"}],"active":true,"name":[{"use":"usual","family":"IPPPass","given":["PrincDxHemorragicSTK"]}],"gender":"female","birthDate":"1994-08-20"},"request":{"method":"PUT","url":"Patient/344ee95d-2e49-480e-97c7-3bbc1360a447"}},{"fullUrl":"https://madie.cms.gov/Encounter/5c954893b848462de0ae6224","resource":{"resourceType":"Encounter","id":"5c954893b848462de0ae6224","meta":{"profile":["http://hl7.org/fhir/us/qicore/StructureDefinition/qicore-encounter"]},"status":"finished","class":{"system":"http://terminology.hl7.org/CodeSystem/v3-ActCode","code":"IMP","display":"inpatient encounter"},"type":[{"coding":[{"system":"http://snomed.info/sct","code":"32485007"}]}],"subject":{"reference":"Patient/344ee95d-2e49-480e-97c7-3bbc1360a447"},"period":{"start":"2025-08-21T00:00:00+00:00","end":"2025-12-18T23:59:00+00:00"},"length":{"value":119.0,"unit":"days"},"diagnosis":[{"condition":{"reference":"Condition/hemorrhagic-stroke-7d4b"},"use":{"coding":[{"system":"http://snomed.info/sct","code":"195155004","display":"Hemorrhagic Stroke"}]},"rank":1}]},"request":{"method":"PUT","url":"Encounter/5c954893b848462de0ae6224"}},{"fullUrl":"https://madie.cms.gov/Coverage/5e20a36a1c76ba6c5896ebd7","resource":{"resourceType":"Coverage","id":"5e20a36a1c76ba6c5896ebd7","status":"active","beneficiary":{"reference":"Patient/344ee95d-2e49-480e-97c7-3bbc1360a447"},"period":{"start":"1994-08-20T07:00:00+00:00"},"payor":[{"reference":"Organization/Org-123456"}]},"request":{"method":"PUT","url":"Coverage/5e20a36a1c76ba6c5896ebd7"}},{"fullUrl":"https://madie.cms.gov/Condition/hemorrhagic-stroke-7d4b","resource":{"resourceType":"Condition","id":"hemorrhagic-stroke-7d4b","meta":{"profile":["http://hl7.org/fhir/us/qicore/StructureDefinition/qicore-condition"]},"clinicalStatus":{"coding":[{"system":"http://terminology.hl7.org/CodeSystem/condition-clinical","code":"active"}]},"verificationStatus":{"coding":[{"system":"http://terminology.hl7.org/CodeSystem/condition-ver-status","code":"confirmed"}]},"category":[{"coding":[{"system":"http://terminology.hl7.org/CodeSystem/condition-category","code":"encounter-diagnosis","display":"Encounter Diagnosis"}]}],"code":{"coding":[{"system":"http://snomed.info/sct","version":"2020-09","code":"195155004","display":"Subarachnoid hemorrhage from carotid siphon and bifurcation (disorder)","userSelected":true}]},"subject":{"reference":"Patient/344ee95d-2e49-480e-97c7-3bbc1360a447"},"recordedDate":"2025-08-16T08:00:00.000+00:00"},"request":{"method":"PUT","url":"Condition/hemorrhagic-stroke-7d4b"}},{"fullUrl":"https://madie.cms.gov/Organization/123456","resource":{"resourceType":"Organization","id":"Org-123456","meta":{"profile":["http://hl7.org/fhir/us/qicore/StructureDefinition/qicore-organization"]},"identifier":[{"use":"temp","system":"urn:oid:2.16.840.1.113883.4.4","value":"21-3259825"}],"active":true,"type":[{"coding":[{"system":"http://terminology.hl7.org/CodeSystem/organization-type","code":"pay","display":"Payer"}]}],"name":"Blue Cross Blue Shield of Texas","telecom":[{"system":"phone","value":"(+1) 972-766-6900"}],"address":[{"use":"billing","type":"postal","line":["P.O. Box 660044"],"city":"Dallas","state":"TX","postalCode":"75266-0044","country":"USA"}]},"request":{"method":"PUT","url":"Organization/Org-123456"}},{"fullUrl":"https://madie.cms.gov/Practitioner/practitioner-123456","resource":{"resourceType":"Practitioner","id":"practitioner-123456","identifier":[{"system":"http://hl7.org/fhir/sid/us-npi","value":"123456"}],"name":[{"family":"Evil","prefix":["Dr"]}]},"request":{"method":"PUT","url":"Practitioner/practitioner-123456"}},{"fullUrl":"https://madie.cms.gov/MeasureReport/28cd4d14-a9e5-4054-bd52-5676b98d5fac","resource":{"resourceType":"MeasureReport","id":"28cd4d14-a9e5-4054-bd52-5676b98d5fac","meta":{"profile":["http://hl7.org/fhir/us/cqfmeasures/StructureDefinition/test-case-cqfm"]},"contained":[{"resourceType":"Parameters","id":"ac6b291a-0065-41be-b08d-94dc1ca832e6-parameters","parameter":[{"name":"subject","valueString":"344ee95d-2e49-480e-97c7-3bbc1360a447"}]}],"extension":[{"url":"http://hl7.org/fhir/us/cqfmeasures/StructureDefinition/cqfm-inputParameters","valueReference":{"reference":"#ac6b291a-0065-41be-b08d-94dc1ca832e6-parameters"}},{"url":"http://hl7.org/fhir/us/cqfmeasures/StructureDefinition/cqfm-testCaseDescription","valueMarkdown":"EncPrinDx=HemStroke LOS<120\n"}],"modifierExtension":[{"url":"http://hl7.org/fhir/us/cqfmeasures/StructureDefinition/cqfm-isTestCase","valueBoolean":true}],"status":"complete","type":"individual","measure":"https://madie.cms.gov/Measure/AntithromboticTherapyByEndofHospitalDay2FHIR","period":{"start":"2025-01-01","end":"2025-12-31"},"group":[{"population":[{"code":{"coding":[{"system":"http://terminology.hl7.org/CodeSystem/measure-population","code":"initial-population","display":"Initial Population"}]},"count":1},{"code":{"coding":[{"system":"http://terminology.hl7.org/CodeSystem/measure-population","code":"denominator","display":"Denominator"}]},"count":0},{"code":{"coding":[{"system":"http://terminology.hl7.org/CodeSystem/measure-population","code":"denominator-exclusion","display":"Denominator Exclusion"}]},"count":0},{"code":{"coding":[{"system":"http://terminology.hl7.org/CodeSystem/measure-population","code":"numerator","display":"Numerator"}]},"count":0},{"code":{"coding":[{"system":"http://terminology.hl7.org/CodeSystem/measure-population","code":"denominator-exception","display":"Denominator Exception"}]},"count":0}]}],"evaluatedResource":[{"reference":"Patient/344ee95d-2e49-480e-97c7-3bbc1360a447"},{"reference":"Encounter/5c954893b848462de0ae6224"},{"reference":"Coverage/5e20a36a1c76ba6c5896ebd7"},{"reference":"Condition/hemorrhagic-stroke-7d4b"},{"reference":"Organization/Org-123456"},{"reference":"Practitioner/practitioner-123456"}]},"request":{"method":"PUT","url":"MeasureReport/28cd4d14-a9e5-4054-bd52-5676b98d5fac"}}]}