{"resourceType":"Bundle","id":"tests-b4cd9b20-6d41-4034-907c-b24e362a0699-bundle","type":"transaction","entry":[{"fullUrl":"https://madie.cms.gov/Patient/b4cd9b20-6d41-4034-907c-b24e362a0699","resource":{"resourceType":"Patient","id":"b4cd9b20-6d41-4034-907c-b24e362a0699","meta":{"profile":["http://hl7.org/fhir/us/qicore/StructureDefinition/qicore-patient"]},"text":{"status":"generated","div":"<div xmlns=\"http://www.w3.org/1999/xhtml\"><div class=\"hapiHeaderText\">INRdurED_ED&gt;1hrNoObsBFEncDayOf <b>DENEXCEPASS </b></div><table class=\"hapiPropertyTable\"><tbody><tr><td>Identifier</td><td>97de51d393bc88ce334828a3a1df3920f5fb67d43d92265e6c726310724c3f53</td></tr><tr><td>Date of birth</td><td><span>26 September 1975</span></td></tr></tbody></table></div>"},"extension":[{"url":"http://hl7.org/fhir/us/core/StructureDefinition/us-core-race","extension":[{"url":"ombCategory","valueCoding":{"system":"urn:oid:2.16.840.1.113883.6.238","code":"2054-5","display":"Black or African American","userSelected":true}},{"url":"text","valueString":"Black or African American"}]},{"url":"http://hl7.org/fhir/us/core/StructureDefinition/us-core-ethnicity","extension":[{"url":"ombCategory","valueCoding":{"system":"urn:oid:2.16.840.1.113883.6.238","code":"2186-5","display":"Not Hispanic or Latino","userSelected":true}},{"url":"text","valueString":"Not Hispanic or Latino"}]}],"identifier":[{"type":{"coding":[{"system":"http://terminology.hl7.org/CodeSystem/v2-0203","code":"MR"}]},"system":"https://bonnie-fhir.healthit.gov/","value":"60f82c2f98086b570510e2b1"}],"active":true,"name":[{"use":"usual","family":"DENEXCEPass","given":["INRdurED_ED>1hrNoObsBFEncDayOf"]}],"gender":"female","birthDate":"1975-09-26"},"request":{"method":"PUT","url":"Patient/b4cd9b20-6d41-4034-907c-b24e362a0699"}},{"fullUrl":"https://madie.cms.gov/Encounter/5c954894b848462de0ae6301","resource":{"resourceType":"Encounter","id":"5c954894b848462de0ae6301","meta":{"profile":["http://hl7.org/fhir/us/qicore/StructureDefinition/qicore-encounter"]},"status":"finished","class":{"system":"http://terminology.hl7.org/CodeSystem/v3-ActCode","code":"EMER","display":"emergency","userSelected":true},"type":[{"coding":[{"system":"http://snomed.info/sct","code":"4525004"}]}],"subject":{"reference":"Patient/b4cd9b20-6d41-4034-907c-b24e362a0699"},"period":{"start":"2025-10-10T06:13:00+00:00","end":"2025-10-10T06:30:00+00:00"},"length":{"value":0.0,"unit":"days"}},"request":{"method":"PUT","url":"Encounter/5c954894b848462de0ae6301"}},{"fullUrl":"https://madie.cms.gov/Encounter/5c954894b848462de0ae6302","resource":{"resourceType":"Encounter","id":"5c954894b848462de0ae6302","meta":{"profile":["http://hl7.org/fhir/us/qicore/StructureDefinition/qicore-encounter"]},"status":"finished","class":{"system":"http://terminology.hl7.org/CodeSystem/v3-ActCode","code":"IMP","display":"inpatient encounter","userSelected":true},"type":[{"coding":[{"system":"http://snomed.info/sct","code":"32485007"}]}],"subject":{"reference":"Patient/b4cd9b20-6d41-4034-907c-b24e362a0699"},"period":{"start":"2025-10-10T07:31:00+00:00","end":"2025-10-15T11:30:00+00:00"},"length":{"value":5.0,"unit":"days"},"diagnosis":[{"condition":{"reference":"Condition/ischemic-stroke-9f1f"},"use":{"coding":[{"system":"http://snomed.info/sct","code":"111297002","display":"Ischemic Stroke"}]},"rank":1}]},"request":{"method":"PUT","url":"Encounter/5c954894b848462de0ae6302"}},{"fullUrl":"https://madie.cms.gov/Observation/5c954894b848462de0ae6304","resource":{"resourceType":"Observation","id":"5c954894b848462de0ae6304","meta":{"profile":["http://hl7.org/fhir/us/qicore/StructureDefinition/qicore-observation"]},"status":"final","category":[{"coding":[{"system":"http://terminology.hl7.org/CodeSystem/observation-category","code":"laboratory","display":"Laboratory"}]}],"code":{"coding":[{"system":"http://loinc.org","code":"34714-6"}]},"subject":{"reference":"Patient/b4cd9b20-6d41-4034-907c-b24e362a0699"},"effectivePeriod":{"start":"2025-10-10T06:14:00+00:00"},"issued":"2025-10-10T06:13:00.000+00:00","valueQuantity":{"value":3.6}},"request":{"method":"PUT","url":"Observation/5c954894b848462de0ae6304"}},{"fullUrl":"https://madie.cms.gov/Coverage/5e20a3711c76ba6c5896ec14","resource":{"resourceType":"Coverage","id":"5e20a3711c76ba6c5896ec14","status":"active","beneficiary":{"reference":"Patient/b4cd9b20-6d41-4034-907c-b24e362a0699"},"period":{"start":"1975-09-26T08:00:00+00:00"},"payor":[{"reference":"Organization/Org-123456"}]},"request":{"method":"PUT","url":"Coverage/5e20a3711c76ba6c5896ec14"}},{"fullUrl":"https://madie.cms.gov/Condition/ischemic-stroke-9f1f","resource":{"resourceType":"Condition","id":"ischemic-stroke-9f1f","meta":{"profile":["http://hl7.org/fhir/us/qicore/StructureDefinition/qicore-condition"]},"clinicalStatus":{"coding":[{"system":"http://terminology.hl7.org/CodeSystem/condition-clinical","code":"active"}]},"verificationStatus":{"coding":[{"system":"http://terminology.hl7.org/CodeSystem/condition-ver-status","code":"confirmed"}]},"category":[{"coding":[{"system":"http://terminology.hl7.org/CodeSystem/condition-category","code":"encounter-diagnosis","display":"Encounter Diagnosis"}]}],"code":{"coding":[{"system":"http://snomed.info/sct","version":"2020-09","code":"111297002","display":"Nonparalytic stroke (disorder)","userSelected":true}]},"subject":{"reference":"Patient/b4cd9b20-6d41-4034-907c-b24e362a0699"},"recordedDate":"2025-08-06T08:00:00.000+00:00"},"request":{"method":"PUT","url":"Condition/ischemic-stroke-9f1f"}},{"fullUrl":"https://madie.cms.gov/Organization/123456","resource":{"resourceType":"Organization","id":"Org-123456","meta":{"profile":["http://hl7.org/fhir/us/qicore/StructureDefinition/qicore-organization"]},"identifier":[{"use":"temp","system":"urn:oid:2.16.840.1.113883.4.4","value":"21-3259825"}],"active":true,"type":[{"coding":[{"system":"http://terminology.hl7.org/CodeSystem/organization-type","code":"pay","display":"Payer"}]}],"name":"Blue Cross Blue Shield of Texas","telecom":[{"system":"phone","value":"(+1) 972-766-6900"}],"address":[{"use":"billing","type":"postal","line":["P.O. Box 660044"],"city":"Dallas","state":"TX","postalCode":"75266-0044","country":"USA"}]},"request":{"method":"PUT","url":"Organization/Org-123456"}},{"fullUrl":"https://madie.cms.gov/MeasureReport/81ead72d-4d7e-4a16-bf50-5a2eb2fc992b","resource":{"resourceType":"MeasureReport","id":"81ead72d-4d7e-4a16-bf50-5a2eb2fc992b","meta":{"profile":["http://hl7.org/fhir/us/cqfmeasures/StructureDefinition/test-case-cqfm"]},"contained":[{"resourceType":"Parameters","id":"4dd6e1f3-b342-428a-9e91-fab75f836ee6-parameters","parameter":[{"name":"subject","valueString":"b4cd9b20-6d41-4034-907c-b24e362a0699"}]}],"extension":[{"url":"http://hl7.org/fhir/us/cqfmeasures/StructureDefinition/cqfm-inputParameters","valueReference":{"reference":"#4dd6e1f3-b342-428a-9e91-fab75f836ee6-parameters"}},{"url":"http://hl7.org/fhir/us/cqfmeasures/StructureDefinition/cqfm-testCaseDescription","valueMarkdown":"Patient receives INR day of ED. Ed ends 61 min before IP start on the same day. No Obs. Testing Day of operator with HospitalizationWithObservation function.\n"}],"modifierExtension":[{"url":"http://hl7.org/fhir/us/cqfmeasures/StructureDefinition/cqfm-isTestCase","valueBoolean":true}],"status":"complete","type":"individual","measure":"https://madie.cms.gov/Measure/AntithromboticTherapyByEndofHospitalDay2FHIR","period":{"start":"2025-01-01","end":"2025-12-31"},"group":[{"population":[{"code":{"coding":[{"system":"http://terminology.hl7.org/CodeSystem/measure-population","code":"initial-population","display":"Initial Population"}]},"count":1},{"code":{"coding":[{"system":"http://terminology.hl7.org/CodeSystem/measure-population","code":"denominator","display":"Denominator"}]},"count":1},{"code":{"coding":[{"system":"http://terminology.hl7.org/CodeSystem/measure-population","code":"denominator-exclusion","display":"Denominator Exclusion"}]},"count":0},{"code":{"coding":[{"system":"http://terminology.hl7.org/CodeSystem/measure-population","code":"numerator","display":"Numerator"}]},"count":0},{"code":{"coding":[{"system":"http://terminology.hl7.org/CodeSystem/measure-population","code":"denominator-exception","display":"Denominator Exception"}]},"count":1}]}],"evaluatedResource":[{"reference":"Patient/b4cd9b20-6d41-4034-907c-b24e362a0699"},{"reference":"Encounter/5c954894b848462de0ae6301"},{"reference":"Encounter/5c954894b848462de0ae6302"},{"reference":"Observation/5c954894b848462de0ae6304"},{"reference":"Coverage/5e20a3711c76ba6c5896ec14"},{"reference":"Condition/ischemic-stroke-9f1f"},{"reference":"Organization/Org-123456"}]},"request":{"method":"PUT","url":"MeasureReport/81ead72d-4d7e-4a16-bf50-5a2eb2fc992b"}}]}