{"resourceType":"Bundle","id":"tests-b3043789-f91a-42f6-848d-6bfd7df331fe-bundle","type":"transaction","entry":[{"fullUrl":"https://madie.cms.gov/Patient/b3043789-f91a-42f6-848d-6bfd7df331fe","resource":{"resourceType":"Patient","id":"b3043789-f91a-42f6-848d-6bfd7df331fe","meta":{"profile":["http://hl7.org/fhir/us/qicore/StructureDefinition/qicore-patient"]},"text":{"status":"generated","div":"<div xmlns=\"http://www.w3.org/1999/xhtml\"><div class=\"hapiHeaderText\">tPADuringInPatientEnc1DayAfterAdmit <b>DENEXPASS-LCG </b></div><table class=\"hapiPropertyTable\"><tbody><tr><td>Identifier</td><td>44863becbb7051abd5e1dad02ddaf594356b765d18873c1d70b102e9efc8cd0b</td></tr><tr><td>Date of birth</td><td><span>26 September 1975</span></td></tr></tbody></table></div>"},"extension":[{"url":"http://hl7.org/fhir/us/core/StructureDefinition/us-core-race","extension":[{"url":"ombCategory","valueCoding":{"system":"urn:oid:2.16.840.1.113883.6.238","code":"2054-5","display":"Black or African American","userSelected":true}},{"url":"text","valueString":"Black or African American"}]},{"url":"http://hl7.org/fhir/us/core/StructureDefinition/us-core-ethnicity","extension":[{"url":"ombCategory","valueCoding":{"system":"urn:oid:2.16.840.1.113883.6.238","code":"2186-5","display":"Not Hispanic or Latino","userSelected":true}},{"url":"text","valueString":"Not Hispanic or Latino"}]}],"identifier":[{"type":{"coding":[{"system":"http://terminology.hl7.org/CodeSystem/v2-0203","code":"MR"}]},"system":"https://bonnie-fhir.healthit.gov/","value":"60f82c2f98086b570510e2c4"}],"active":true,"name":[{"use":"usual","family":"DENEXPass-LCG","given":["tPADuringInPatientEnc1DayAfterAdmit"]}],"gender":"female","birthDate":"1975-09-26"},"request":{"method":"PUT","url":"Patient/b3043789-f91a-42f6-848d-6bfd7df331fe"}},{"fullUrl":"https://madie.cms.gov/Encounter/5ce6d13eb84846725ea458eb","resource":{"resourceType":"Encounter","id":"671c79e4-c071-4cfa-b6ff-4ba9fc05be16","meta":{"profile":["http://hl7.org/fhir/us/qicore/StructureDefinition/qicore-encounter"]},"status":"finished","class":{"system":"http://terminology.hl7.org/CodeSystem/v3-ActCode","code":"EMER","display":"emergency"},"type":[{"coding":[{"system":"http://snomed.info/sct","code":"4525004"}]}],"subject":{"reference":"Patient/b3043789-f91a-42f6-848d-6bfd7df331fe"},"period":{"start":"2025-10-10T04:00:00+00:00","end":"2025-10-10T10:30:00+00:00"},"length":{"value":0,"unit":"days"}},"request":{"method":"PUT","url":"Encounter/671c79e4-c071-4cfa-b6ff-4ba9fc05be16"}},{"fullUrl":"https://madie.cms.gov/Encounter/5ce6d13eb84846725ea458ec","resource":{"resourceType":"Encounter","id":"af655d99-9ba2-4c31-af96-8e1cfa0f1ccf","meta":{"profile":["http://hl7.org/fhir/us/qicore/StructureDefinition/qicore-encounter"]},"status":"finished","class":{"system":"http://terminology.hl7.org/CodeSystem/v3-ActCode","code":"IMP","display":"inpatient encounter"},"type":[{"coding":[{"system":"http://snomed.info/sct","code":"32485007"}]}],"subject":{"reference":"Patient/b3043789-f91a-42f6-848d-6bfd7df331fe"},"period":{"start":"2025-10-11T11:00:00+00:00","end":"2025-10-14T11:30:00+00:00"},"length":{"value":3,"unit":"days"},"diagnosis":[{"condition":{"reference":"Condition/ischemic-stroke-6d69"},"use":{"coding":[{"system":"http://terminology.hl7.org/CodeSystem/diagnosis-role","code":"billing","display":"Billing"}]},"rank":1}]},"request":{"method":"PUT","url":"Encounter/af655d99-9ba2-4c31-af96-8e1cfa0f1ccf"}},{"fullUrl":"https://madie.cms.gov/Procedure/5e27158629969c0000f91cc9","resource":{"resourceType":"Procedure","id":"87ee2a78-e6b1-4a81-90fa-50966b38fa3a","meta":{"profile":["http://hl7.org/fhir/us/qicore/StructureDefinition/qicore-procedure"]},"extension":[{"url":"http://hl7.org/fhir/us/qicore/StructureDefinition/qicore-recorded","valueDateTime":"2025-11-19T09:35:00-04:00"}],"status":"completed","code":{"coding":[{"system":"http://snomed.info/sct","code":"307521008"}]},"subject":{"reference":"Patient/b3043789-f91a-42f6-848d-6bfd7df331fe"},"performedPeriod":{"start":"2025-10-12T11:00:00+00:00","end":"2025-10-14T11:30:00+00:00"}},"request":{"method":"PUT","url":"Procedure/87ee2a78-e6b1-4a81-90fa-50966b38fa3a"}},{"fullUrl":"https://madie.cms.gov/Condition/ischemic-stroke-6d69","resource":{"resourceType":"Condition","id":"14e0ed07-f5de-46b4-ba9c-bb9a99507848","meta":{"profile":["http://hl7.org/fhir/us/qicore/StructureDefinition/qicore-condition"]},"clinicalStatus":{"coding":[{"system":"http://terminology.hl7.org/CodeSystem/condition-clinical","code":"active"}]},"verificationStatus":{"coding":[{"system":"http://terminology.hl7.org/CodeSystem/condition-ver-status","code":"confirmed"}]},"category":[{"coding":[{"system":"http://terminology.hl7.org/CodeSystem/condition-category","code":"encounter-diagnosis","display":"Encounter Diagnosis"}]}],"code":{"coding":[{"system":"http://snomed.info/sct","version":"2020-09","code":"111297002","display":"Nonparalytic stroke (disorder)","userSelected":true}]},"subject":{"reference":"Patient/b3043789-f91a-42f6-848d-6bfd7df331fe"},"recordedDate":"2025-08-13T08:00:00.000+00:00"},"request":{"method":"PUT","url":"Condition/14e0ed07-f5de-46b4-ba9c-bb9a99507848"}},{"fullUrl":"https://madie.cms.gov/Coverage/1","resource":{"resourceType":"Coverage","id":"5385023b-c180-4b7e-842f-4652617e18ca","meta":{"profile":["http://hl7.org/fhir/us/qicore/StructureDefinition/qicore-coverage"]},"status":"active","beneficiary":{"reference":"Patient/b3043789-f91a-42f6-848d-6bfd7df331fe"},"payor":[{"reference":"Organization/024e2731-b045-43bf-80d2-684774c5b51c"}]},"request":{"method":"PUT","url":"Coverage/5385023b-c180-4b7e-842f-4652617e18ca"}},{"fullUrl":"https://madie.cms.gov/Organization/123456","resource":{"resourceType":"Organization","id":"024e2731-b045-43bf-80d2-684774c5b51c","meta":{"profile":["http://hl7.org/fhir/us/qicore/StructureDefinition/qicore-organization"]},"identifier":[{"use":"temp","system":"urn:oid:2.16.840.1.113883.4.4","value":"21-3259825"}],"active":true,"type":[{"coding":[{"system":"http://terminology.hl7.org/CodeSystem/organization-type","code":"pay","display":"Payer"}]}],"name":"Blue Cross Blue Shield of Texas","telecom":[{"system":"phone","value":"(+1) 972-766-6900"}],"address":[{"use":"billing","type":"postal","line":["P.O. Box 660044"],"city":"Dallas","state":"TX","postalCode":"75266-0044","country":"USA"}]},"request":{"method":"PUT","url":"Organization/024e2731-b045-43bf-80d2-684774c5b51c"}},{"fullUrl":"https://madie.cms.gov/Practitioner/practitioner-123456","resource":{"resourceType":"Practitioner","id":"7964605f-1056-4396-b9e6-0fa48d232892","identifier":[{"system":"http://hl7.org/fhir/sid/us-npi","value":"123456"}],"name":[{"family":"Evil","prefix":["Dr"]}]},"request":{"method":"PUT","url":"Practitioner/7964605f-1056-4396-b9e6-0fa48d232892"}},{"fullUrl":"https://madie.cms.gov/MeasureReport/22c8c66d-5284-4d7c-822b-74ffbd819cc5","resource":{"resourceType":"MeasureReport","id":"22c8c66d-5284-4d7c-822b-74ffbd819cc5","meta":{"profile":["http://hl7.org/fhir/us/cqfmeasures/StructureDefinition/test-case-cqfm"]},"contained":[{"resourceType":"Parameters","id":"75c69d00-c36a-40e3-ac64-b440505a9fcf-parameters","parameter":[{"name":"subject","valueString":"b3043789-f91a-42f6-848d-6bfd7df331fe"}]}],"extension":[{"url":"http://hl7.org/fhir/us/cqfmeasures/StructureDefinition/cqfm-inputParameters","valueReference":{"reference":"#75c69d00-c36a-40e3-ac64-b440505a9fcf-parameters"}},{"url":"http://hl7.org/fhir/us/cqfmeasures/StructureDefinition/cqfm-testCaseDescription","valueMarkdown":" Patient received tPA  one day after admission to inpatient hospitalization \n"}],"modifierExtension":[{"url":"http://hl7.org/fhir/us/cqfmeasures/StructureDefinition/cqfm-isTestCase","valueBoolean":true}],"status":"complete","type":"individual","measure":"https://madie.cms.gov/Measure/AntithromboticTherapyByEndofHospitalDay2FHIR","period":{"start":"2025-01-01","end":"2025-12-31"},"group":[{"population":[{"code":{"coding":[{"system":"http://terminology.hl7.org/CodeSystem/measure-population","code":"initial-population","display":"Initial Population"}]},"count":1},{"code":{"coding":[{"system":"http://terminology.hl7.org/CodeSystem/measure-population","code":"denominator","display":"Denominator"}]},"count":1},{"code":{"coding":[{"system":"http://terminology.hl7.org/CodeSystem/measure-population","code":"denominator-exclusion","display":"Denominator Exclusion"}]},"count":1},{"code":{"coding":[{"system":"http://terminology.hl7.org/CodeSystem/measure-population","code":"numerator","display":"Numerator"}]},"count":0},{"code":{"coding":[{"system":"http://terminology.hl7.org/CodeSystem/measure-population","code":"denominator-exception","display":"Denominator Exception"}]},"count":0}]}]},"request":{"method":"PUT","url":"MeasureReport/22c8c66d-5284-4d7c-822b-74ffbd819cc5"}}]}