{
  "resourceType": "Bundle",
  "id": "63487c2f0968f80122540191",
  "type": "transaction",
  "entry": [ {
    "fullUrl": "https://madie.cms.gov/Patient/ecf5375c-912c-483c-9c38-72d85df27f12",
    "resource": {
      "resourceType": "Patient",
      "id": "ecf5375c-912c-483c-9c38-72d85df27f12",
      "meta": {
        "profile": [ "http://hl7.org/fhir/us/qicore/StructureDefinition/qicore-patient" ]
      },
      "text": {
        "status": "generated",
        "div": "<div xmlns=\"http://www.w3.org/1999/xhtml\"><div class=\"hapiHeaderText\">AssessG1RelDateTime1MinB4Deliv <b>DENPASS </b></div><table class=\"hapiPropertyTable\"><tbody><tr><td>Identifier</td><td>922db984f9db53e157b9b9a69ed9222997d6b9bae6d41f21e52e3ca568fdb9dd</td></tr><tr><td>Date of birth</td><td><span>14 February 1985</span></td></tr></tbody></table></div>"
      },
      "extension": [ {
        "url": "http://hl7.org/fhir/us/core/StructureDefinition/us-core-race",
        "extension": [ {
          "url": "ombCategory",
          "valueCoding": {
            "system": "urn:oid:2.16.840.1.113883.6.238",
            "code": "1002-5",
            "display": "American Indian or Alaska Native",
            "userSelected": true
          }
        }, {
          "url": "text",
          "valueString": "American Indian or Alaska Native"
        } ]
      }, {
        "url": "http://hl7.org/fhir/us/core/StructureDefinition/us-core-ethnicity",
        "extension": [ {
          "url": "ombCategory",
          "valueCoding": {
            "system": "urn:oid:2.16.840.1.113883.6.238",
            "code": "2135-2",
            "display": "Hispanic or Latino",
            "userSelected": true
          }
        }, {
          "url": "text",
          "valueString": "Hispanic or Latino"
        } ]
      } ],
      "identifier": [ {
        "type": {
          "coding": [ {
            "system": "http://terminology.hl7.org/CodeSystem/v2-0203",
            "code": "MR"
          } ]
        },
        "system": "https://bonnie-fhir.healthit.gov/",
        "value": "63487c2f0968f80122540191"
      } ],
      "active": true,
      "name": [ {
        "use": "usual",
        "family": "DENPass",
        "given": [ "AssessG1RelDateTime1MinB4Deliv" ]
      } ],
      "gender": "female",
      "birthDate": "1997-02-14"
    },
    "request": {
      "method": "POST",
      "url": "Patient/ecf5375c-912c-483c-9c38-72d85df27f12"
    }
  }, {
    "fullUrl": "https://madie.cms.gov/Observation/5d014eb3b8484608723806af",
    "resource": {
      "resourceType": "Observation",
      "id": "5d014eb3b8484608723806af",
      "meta": {
        "profile": [ "http://hl7.org/fhir/us/qicore/StructureDefinition/qicore-observation" ]
      },
      "status": "final",
      "category": [ {
        "coding": [ {
          "system": "http://terminology.hl7.org/CodeSystem/observation-category",
          "code": "exam",
          "display": "exam",
          "userSelected": true
        } ]
      } ],
      "code": {
        "coding": [ {
          "system": "http://loinc.org",
          "code": "11884-4"
        } ]
      },
      "subject": {
        "reference": "Patient/ecf5375c-912c-483c-9c38-72d85df27f12"
      },
      "effectiveDateTime": "2025-06-08T09:15:00.000+00:00",
      "valueQuantity": {
        "value": 38.0,
        "system": "http://unitsofmeasure.org",
        "code": "weeks"
      }
    },
    "request": {
      "method": "POST",
      "url": "Observation/5d014eb3b8484608723806af"
    }
  }, {
    "fullUrl": "https://madie.cms.gov/Observation/5d014eb3b8484608723806b1",
    "resource": {
      "resourceType": "Observation",
      "id": "5d014eb3b8484608723806b1",
      "meta": {
        "profile": [ "http://hl7.org/fhir/us/qicore/StructureDefinition/qicore-observation" ]
      },
      "status": "final",
      "category": [ {
        "coding": [ {
          "system": "http://terminology.hl7.org/CodeSystem/observation-category",
          "code": "exam",
          "display": "exam",
          "userSelected": true
        } ]
      } ],
      "code": {
        "coding": [ {
          "system": "http://loinc.org",
          "code": "11996-6"
        } ]
      },
      "subject": {
        "reference": "Patient/ecf5375c-912c-483c-9c38-72d85df27f12"
      },
      "effectiveDateTime": "2025-06-08T18:59:00.000+00:00",
      "valueInteger": 1
    },
    "request": {
      "method": "POST",
      "url": "Observation/5d014eb3b8484608723806b1"
    }
  }, {
    "fullUrl": "https://madie.cms.gov/Observation/5e6166363e992300009b6da2",
    "resource": {
      "resourceType": "Observation",
      "id": "5e6166363e992300009b6da2",
      "meta": {
        "profile": [ "http://hl7.org/fhir/us/qicore/StructureDefinition/qicore-observation" ]
      },
      "status": "final",
      "category": [ {
        "coding": [ {
          "system": "http://terminology.hl7.org/CodeSystem/observation-category",
          "code": "exam",
          "display": "exam",
          "userSelected": true
        } ]
      } ],
      "code": {
        "coding": [ {
          "system": "http://loinc.org",
          "code": "93857-1"
        } ]
      },
      "subject": {
        "reference": "Patient/ecf5375c-912c-483c-9c38-72d85df27f12"
      },
      "effectiveDateTime": "2025-06-08T19:00:00.000+00:00",
      "valueDateTime": "2025-06-08T19:00:00+00:00"
    },
    "request": {
      "method": "POST",
      "url": "Observation/5e6166363e992300009b6da2"
    }
  }, {
    "fullUrl": "https://madie.cms.gov/Encounter/5d014eb3b8484608723806ad",
    "resource": {
      "resourceType": "Encounter",
      "id": "5d014eb3b8484608723806ad",
      "meta": {
        "profile": [ "http://hl7.org/fhir/us/qicore/StructureDefinition/qicore-encounter" ]
      },
      "status": "finished",
      "class": {
        "system": "http://terminology.hl7.org/CodeSystem/v3-ActCode",
        "code": "IMP",
        "display": "inpatient encounter"
      },
      "type": [ {
        "coding": [ {
          "system": "http://snomed.info/sct",
          "code": "183452005"
        } ]
      } ],
      "subject": {
        "reference": "Patient/ecf5375c-912c-483c-9c38-72d85df27f12"
      },
      "period": {
        "start": "2025-06-08T08:00:00.000Z",
        "end": "2025-06-10T08:15:00.000Z"
      },
      "length": {
        "value": 2.0,
        "unit": "days"
      },
      "diagnosis": [ {
        "condition": {
          "reference": "Condition/delivery-of-singleton-f83c"
        },
        "use": {
          "coding": [ {
            "system": "http://snomed.info/sct",
            "code": "169826009",
            "display": "Delivery of Singleton"
          } ]
        }
      }, {
        "condition": {
          "reference": "Condition/delivery-of-singleton-4d28"
        }
      } ]
    },
    "request": {
      "method": "POST",
      "url": "Encounter/5d014eb3b8484608723806ad"
    }
  }, {
    "fullUrl": "https://madie.cms.gov/Procedure/5d014eb3b8484608723806ae",
    "resource": {
      "resourceType": "Procedure",
      "id": "5d014eb3b8484608723806ae",
      "meta": {
        "profile": [ "http://hl7.org/fhir/us/qicore/StructureDefinition/qicore-procedure" ]
      },
      "extension": [ {
        "url": "http://hl7.org/fhir/us/qicore/StructureDefinition/qicore-recorded",
        "valueDateTime": "2013-04-05T09:35:00-04:00"
      } ],
      "status": "completed",
      "code": {
        "coding": [ {
          "system": "http://www.cms.gov/Medicare/Coding/ICD10",
          "code": "10D07Z3"
        }, {
          "system": "http://www.icd10data.com/icd10pcs",
          "code": "10D07Z3",
          "userSelected": true
        } ]
      },
      "subject": {
        "reference": "Patient/ecf5375c-912c-483c-9c38-72d85df27f12"
      },
      "performedPeriod": {
        "start": "2025-06-08T08:10:00.000Z",
        "end": "2025-06-08T09:14:00.000Z"
      }
    },
    "request": {
      "method": "POST",
      "url": "Procedure/5d014eb3b8484608723806ae"
    }
  }, {
    "fullUrl": "https://madie.cms.gov/Condition/delivery-of-singleton-4d28",
    "resource": {
      "resourceType": "Condition",
      "id": "delivery-of-singleton-4d28",
      "meta": {
        "profile": [ "http://hl7.org/fhir/us/qicore/StructureDefinition/qicore-condition" ]
      },
      "category": [ {
        "coding": [ {
          "system": "http://terminology.hl7.org/CodeSystem/condition-category",
          "code": "encounter-diagnosis",
          "display": "Encounter Diagnosis"
        } ]
      } ],
      "code": {
        "coding": [ {
          "system": "http://snomed.info/sct",
          "version": "2022-09",
          "code": "169826009",
          "display": "Single live birth (finding)",
          "userSelected": true
        } ]
      },
      "subject": {
        "reference": "Patient/ecf5375c-912c-483c-9c38-72d85df27f12"
      },
      "recordedDate": "2025-10-18T08:00:00.000+00:00"
    },
    "request": {
      "method": "POST",
      "url": "Condition/delivery-of-singleton-4d28"
    }
  }, {
    "fullUrl": "https://madie.cms.gov/Coverage/1",
    "resource": {
      "resourceType": "Coverage",
      "id": "1",
      "meta": {
        "profile": [ "http://hl7.org/fhir/us/qicore/StructureDefinition/qicore-coverage" ]
      },
      "status": "active",
      "beneficiary": {
        "reference": "Patient/ecf5375c-912c-483c-9c38-72d85df27f12"
      },
      "payor": [ {
        "reference": "Organization/123456"
      } ]
    },
    "request": {
      "method": "POST",
      "url": "Coverage/1"
    }
  }, {
    "fullUrl": "https://madie.cms.gov/Organization/123456",
    "resource": {
      "resourceType": "Organization",
      "id": "123456",
      "meta": {
        "profile": [ "http://hl7.org/fhir/us/qicore/StructureDefinition/qicore-organization" ]
      },
      "identifier": [ {
        "use": "temp",
        "system": "urn:oid:2.16.840.1.113883.4.4",
        "value": "21-3259825"
      } ],
      "active": true,
      "type": [ {
        "coding": [ {
          "system": "http://terminology.hl7.org/CodeSystem/organization-type",
          "code": "pay",
          "display": "Payer"
        } ]
      } ],
      "name": "Blue Cross Blue Shield of Texas",
      "telecom": [ {
        "system": "phone",
        "value": "(+1) 972-766-6900"
      } ],
      "address": [ {
        "use": "billing",
        "type": "postal",
        "line": [ "P.O. Box 660044" ],
        "city": "Dallas",
        "state": "TX",
        "postalCode": "75266-0044",
        "country": "USA"
      } ]
    },
    "request": {
      "method": "POST",
      "url": "Organization/123456"
    }
  }, {
    "fullUrl": "https://madie.cms.gov/Practitioner/practitioner-123456",
    "resource": {
      "resourceType": "Practitioner",
      "id": "practitioner-123456",
      "identifier": [ {
        "system": "http://hl7.org/fhir/sid/us-npi",
        "value": "123456"
      } ],
      "name": [ {
        "family": "Evil",
        "prefix": [ "Dr" ]
      } ]
    },
    "request": {
      "method": "POST",
      "url": "Practitioner/practitioner-123456"
    }
  }, {
    "fullUrl": "https://madie.cms.gov/MeasureReport/f92caec9-6026-4aa7-8686-104b6168dc7e",
    "resource": {
      "resourceType": "MeasureReport",
      "id": "f92caec9-6026-4aa7-8686-104b6168dc7e",
      "meta": {
        "profile": [ "http://hl7.org/fhir/us/cqfmeasures/StructureDefinition/test-case-cqfm" ]
      },
      "contained": [ {
        "resourceType": "Parameters",
        "id": "c71ecb2a-e813-4799-9abf-47e437a6864f-parameters",
        "parameter": [ {
          "name": "subject",
          "valueString": "ecf5375c-912c-483c-9c38-72d85df27f12"
        } ]
      } ],
      "extension": [ {
        "url": "http://hl7.org/fhir/us/cqfmeasures/StructureDefinition/cqfm-inputParameters",
        "valueReference": {
          "reference": "#c71ecb2a-e813-4799-9abf-47e437a6864f-parameters"
        }
      }, {
        "url": "http://hl7.org/fhir/us/cqfmeasures/StructureDefinition/cqfm-testCaseDescription",
        "valueMarkdown": "Tests that Assess Gravida Rel Date is 1 Minute before the Time of Delivery Rel Date.  \n"
      } ],
      "modifierExtension": [ {
        "url": "http://hl7.org/fhir/us/cqfmeasures/StructureDefinition/cqfm-isTestCase",
        "valueBoolean": true
      } ],
      "status": "complete",
      "type": "individual",
      "measure": "https://madie.cms.gov/Measure/CesareanBirthFHIR",
      "period": {
        "start": "2025-01-01",
        "end": "2025-12-31"
      },
      "group": [ {
        "population": [ {
          "code": {
            "coding": [ {
              "system": "http://terminology.hl7.org/CodeSystem/measure-population",
              "code": "initial-population",
              "display": "Initial Population"
            } ]
          },
          "count": 1
        }, {
          "code": {
            "coding": [ {
              "system": "http://terminology.hl7.org/CodeSystem/measure-population",
              "code": "denominator",
              "display": "Denominator"
            } ]
          },
          "count": 1
        }, {
          "code": {
            "coding": [ {
              "system": "http://terminology.hl7.org/CodeSystem/measure-population",
              "code": "denominator-exclusion",
              "display": "Denominator Exclusion"
            } ]
          },
          "count": 0
        }, {
          "code": {
            "coding": [ {
              "system": "http://terminology.hl7.org/CodeSystem/measure-population",
              "code": "numerator",
              "display": "Numerator"
            } ]
          },
          "count": 0
        } ]
      } ],
      "evaluatedResource": [ {
        "reference": "https://madie.cms.gov/Patient/ecf5375c-912c-483c-9c38-72d85df27f12"
      }, {
        "reference": "https://madie.cms.gov/Observation/5d014eb3b8484608723806af"
      }, {
        "reference": "https://madie.cms.gov/Observation/5d014eb3b8484608723806b1"
      }, {
        "reference": "https://madie.cms.gov/Observation/5e6166363e992300009b6da2"
      }, {
        "reference": "https://madie.cms.gov/Encounter/5d014eb3b8484608723806ad"
      }, {
        "reference": "https://madie.cms.gov/Procedure/5d014eb3b8484608723806ae"
      }, {
        "reference": "https://madie.cms.gov/Condition/delivery-of-singleton-4d28"
      }, {
        "reference": "https://madie.cms.gov/Coverage/1"
      }, {
        "reference": "https://madie.cms.gov/Organization/123456"
      }, {
        "reference": "https://madie.cms.gov/Practitioner/practitioner-123456"
      } ]
    },
    "request": {
      "method": "POST",
      "url": "MeasureReport/f92caec9-6026-4aa7-8686-104b6168dc7e"
    }
  } ]
}