{
  "resourceType": "Bundle",
  "id": "DENEXFail-MalNeoplasmDxOutsideTHAProcInt",
  "type": "transaction",
  "entry": [ {
    "fullUrl": "https://madie.cms.gov/Patient/5c8bf8bb-d4b6-41cf-b8de-e27bdeef6948",
    "resource": {
      "resourceType": "Patient",
      "id": "5c8bf8bb-d4b6-41cf-b8de-e27bdeef6948",
      "meta": {
        "profile": [ "http://hl7.org/fhir/us/qicore/StructureDefinition/qicore-patient" ]
      },
      "extension": [ {
        "url": "http://hl7.org/fhir/us/core/StructureDefinition/us-core-race",
        "extension": [ {
          "url": "ombCategory",
          "valueCoding": {
            "system": "urn:oid:2.16.840.1.113883.6.238",
            "code": "2028-9",
            "display": "Asian"
          }
        }, {
          "url": "text",
          "valueString": "Asian"
        } ]
      }, {
        "url": "http://hl7.org/fhir/us/core/StructureDefinition/us-core-ethnicity",
        "extension": [ {
          "url": "ombCategory",
          "valueCoding": {
            "system": "urn:oid:2.16.840.1.113883.6.238",
            "code": "2135-2",
            "display": "Hispanic or Latino"
          }
        }, {
          "url": "text",
          "valueString": "Hispanic or Latino"
        } ]
      } ],
      "identifier": [ {
        "system": "http://hospital.smarthealthit.org",
        "value": "999999995"
      } ],
      "name": [ {
        "family": "Bertha",
        "given": [ "Betty" ]
      } ],
      "gender": "female",
      "birthDate": "2006-01-01"
    },
    "request": {
      "method": "POST",
      "url": "Patient/5c8bf8bb-d4b6-41cf-b8de-e27bdeef6948"
    }
  }, {
    "fullUrl": "https://madie.cms.gov/Procedure/Procedure-20",
    "resource": {
      "resourceType": "Procedure",
      "id": "Procedure-20",
      "meta": {
        "profile": [ "http://hl7.org/fhir/us/qicore/StructureDefinition/qicore-procedure" ]
      },
      "extension": [ {
        "url": "http://hl7.org/fhir/us/qicore/StructureDefinition/qicore-recorded",
        "valueDateTime": "2023-11-01T00:00:00.000Z"
      } ],
      "status": "completed",
      "code": {
        "coding": [ {
          "system": "http://www.cms.gov/Medicare/Coding/ICD10",
          "code": "0SR9019",
          "display": "Replacement of Right Hip Joint with Metal Synthetic Substitute, Cemented, Open Approach"
        } ]
      },
      "subject": {
        "reference": "Patient/5c8bf8bb-d4b6-41cf-b8de-e27bdeef6948"
      },
      "performedPeriod": {
        "start": "2023-11-01T00:00:00.000Z",
        "end": "2023-11-01T01:00:00.000Z"
      }
    },
    "request": {
      "method": "POST",
      "url": "Procedure/Procedure-20"
    }
  }, {
    "fullUrl": "https://madie.cms.gov/Encounter/Encounter-20",
    "resource": {
      "resourceType": "Encounter",
      "id": "Encounter-20",
      "meta": {
        "profile": [ "http://hl7.org/fhir/us/qicore/StructureDefinition/qicore-encounter" ]
      },
      "status": "finished",
      "class": {
        "system": "http://terminology.hl7.org/CodeSystem/v3-ActCode",
        "code": "AMB",
        "display": "ambulatory"
      },
      "type": [ {
        "coding": [ {
          "system": "http://snomed.info/sct",
          "code": "281036007",
          "display": "Follow-up consultation (procedure)"
        } ]
      } ],
      "subject": {
        "reference": "Patient/5c8bf8bb-d4b6-41cf-b8de-e27bdeef6948"
      },
      "period": {
        "start": "2024-11-01T00:00:00.000Z",
        "end": "2024-11-01T01:15:00.000Z"
      }
    },
    "request": {
      "method": "POST",
      "url": "Encounter/Encounter-20"
    }
  }, {
    "fullUrl": "https://madie.cms.gov/Condition/Condition-20",
    "resource": {
      "resourceType": "Condition",
      "id": "Condition-20",
      "meta": {
        "profile": [ "http://hl7.org/fhir/us/qicore/StructureDefinition/qicore-condition" ]
      },
      "clinicalStatus": {
        "coding": [ {
          "system": "http://terminology.hl7.org/CodeSystem/condition-clinical",
          "code": "resolved"
        } ]
      },
      "category": [ {
        "coding": [ {
          "system": "http://terminology.hl7.org/CodeSystem/condition-category",
          "code": "problem-list-item",
          "display": "Problem List Item"
        } ]
      } ],
      "code": {
        "coding": [ {
          "system": "http://snomed.info/sct",
          "code": "101371000119101",
          "display": "Adamantinoma of long bone of lower limb (disorder)"
        } ]
      },
      "subject": {
        "reference": "Patient/5c8bf8bb-d4b6-41cf-b8de-e27bdeef6948"
      },
      "onsetDateTime": "2023-10-31T11:59:59.000Z",
      "abatementDateTime": "2023-10-31T11:59:59.000Z"
    },
    "request": {
      "method": "POST",
      "url": "Condition/Condition-20"
    }
  }, {
    "fullUrl": "https://madie.cms.gov/MeasureReport/d06295dd-57c5-4f02-82a7-c88efd6b0fc1",
    "resource": {
      "resourceType": "MeasureReport",
      "id": "d06295dd-57c5-4f02-82a7-c88efd6b0fc1",
      "meta": {
        "profile": [ "http://hl7.org/fhir/us/cqfmeasures/StructureDefinition/test-case-cqfm" ]
      },
      "contained": [ {
        "resourceType": "Parameters",
        "id": "a291b19c-bb23-4105-b9a2-6f803955290d-parameters",
        "parameter": [ {
          "name": "subject",
          "valueString": "5c8bf8bb-d4b6-41cf-b8de-e27bdeef6948"
        } ]
      } ],
      "extension": [ {
        "url": "http://hl7.org/fhir/us/cqfmeasures/StructureDefinition/cqfm-inputParameters",
        "valueReference": {
          "reference": "#a291b19c-bb23-4105-b9a2-6f803955290d-parameters"
        }
      }, {
        "url": "http://hl7.org/fhir/us/cqfmeasures/StructureDefinition/cqfm-testCaseDescription",
        "valueMarkdown": "Patient has Dx of Malignant Neoplasm that falls outside of the THAProcedure Interval"
      } ],
      "modifierExtension": [ {
        "url": "http://hl7.org/fhir/us/cqfmeasures/StructureDefinition/cqfm-isTestCase",
        "valueBoolean": true
      } ],
      "status": "complete",
      "type": "individual",
      "measure": "https://madie.cms.gov/Measure/FunctionalStatusAssessmentforTotalHipReplacementFHIR",
      "period": {
        "start": "2025-01-01",
        "end": "2025-12-31"
      },
      "group": [ {
        "population": [ {
          "code": {
            "coding": [ {
              "system": "http://terminology.hl7.org/CodeSystem/measure-population",
              "code": "initial-population",
              "display": "Initial Population"
            } ]
          },
          "count": 1
        }, {
          "code": {
            "coding": [ {
              "system": "http://terminology.hl7.org/CodeSystem/measure-population",
              "code": "denominator",
              "display": "Denominator"
            } ]
          },
          "count": 1
        }, {
          "code": {
            "coding": [ {
              "system": "http://terminology.hl7.org/CodeSystem/measure-population",
              "code": "denominator-exclusion",
              "display": "Denominator Exclusion"
            } ]
          },
          "count": 0
        }, {
          "code": {
            "coding": [ {
              "system": "http://terminology.hl7.org/CodeSystem/measure-population",
              "code": "numerator",
              "display": "Numerator"
            } ]
          },
          "count": 0
        } ]
      } ],
      "evaluatedResource": [ {
        "reference": "https://madie.cms.gov/Patient/5c8bf8bb-d4b6-41cf-b8de-e27bdeef6948"
      }, {
        "reference": "https://madie.cms.gov/Procedure/Procedure-20"
      }, {
        "reference": "https://madie.cms.gov/Encounter/Encounter-20"
      }, {
        "reference": "https://madie.cms.gov/Condition/Condition-20"
      } ]
    },
    "request": {
      "method": "POST",
      "url": "MeasureReport/d06295dd-57c5-4f02-82a7-c88efd6b0fc1"
    }
  } ]
}