{
  "resourceType": "Bundle",
  "id": "612e6ae802c62a011f2ebb43",
  "type": "transaction",
  "entry": [ {
    "fullUrl": "https://madie.cms.gov/Patient/9b6d2fc2-6e25-4c0a-b4cb-3ca7f85be9b4",
    "resource": {
      "resourceType": "Patient",
      "id": "9b6d2fc2-6e25-4c0a-b4cb-3ca7f85be9b4",
      "meta": {
        "profile": [ "http://hl7.org/fhir/us/qicore/StructureDefinition/qicore-patient" ]
      },
      "text": {
        "status": "generated",
        "div": "<div xmlns=\"http://www.w3.org/1999/xhtml\"><div class=\"hapiHeaderText\">CMPerfDrgObsGT1HrBFAdmCMODayBFAdm <b>DENEXFAIL </b></div><table class=\"hapiPropertyTable\"><tbody><tr><td>Identifier</td><td>d874f5a6c52d811bf5e5d1093e0795b3dc8691e8a7d30647cbc3be67b679e144</td></tr><tr><td>Date of birth</td><td><span>02 January 1974</span></td></tr></tbody></table></div>"
      },
      "extension": [ {
        "url": "http://hl7.org/fhir/us/core/StructureDefinition/us-core-race",
        "extension": [ {
          "url": "ombCategory",
          "valueCoding": {
            "system": "urn:oid:2.16.840.1.113883.6.238",
            "code": "1002-5",
            "display": "American Indian or Alaska Native",
            "userSelected": true
          }
        }, {
          "url": "text",
          "valueString": "American Indian or Alaska Native"
        } ]
      }, {
        "url": "http://hl7.org/fhir/us/core/StructureDefinition/us-core-ethnicity",
        "extension": [ {
          "url": "ombCategory",
          "valueCoding": {
            "system": "urn:oid:2.16.840.1.113883.6.238",
            "code": "2135-2",
            "display": "Hispanic or Latino",
            "userSelected": true
          }
        }, {
          "url": "text",
          "valueString": "Hispanic or Latino"
        } ]
      } ],
      "identifier": [ {
        "type": {
          "coding": [ {
            "system": "http://terminology.hl7.org/CodeSystem/v2-0203",
            "code": "MR"
          } ]
        },
        "system": "https://bonnie-fhir.healthit.gov/",
        "value": "612e6ae802c62a011f2ebb43"
      } ],
      "active": true,
      "name": [ {
        "use": "usual",
        "family": "DENEXFail",
        "given": [ "CMPerfDrgObsGT1HrBFAdmCMODayBFAdm" ]
      } ],
      "gender": "male",
      "birthDate": "1974-01-02"
    },
    "request": {
      "method": "POST",
      "url": "Patient/9b6d2fc2-6e25-4c0a-b4cb-3ca7f85be9b4"
    }
  }, {
    "fullUrl": "https://madie.cms.gov/Encounter/5ca62965b8484628b8de1fcd",
    "resource": {
      "resourceType": "Encounter",
      "id": "5ca62965b8484628b8de1fcd",
      "meta": {
        "profile": [ "http://hl7.org/fhir/us/qicore/StructureDefinition/qicore-encounter" ]
      },
      "status": "finished",
      "class": {
        "system": "http://terminology.hl7.org/CodeSystem/v3-ActCode",
        "code": "EMER",
        "display": "emergency"
      },
      "type": [ {
        "coding": [ {
          "system": "http://snomed.info/sct",
          "code": "4525004"
        } ]
      } ],
      "subject": {
        "reference": "Patient/9b6d2fc2-6e25-4c0a-b4cb-3ca7f85be9b4"
      },
      "period": {
        "start": "2025-10-31T04:00:00+00:00",
        "end": "2025-11-01T05:15:00+00:00"
      },
      "length": {
        "value": 1.0,
        "unit": "days"
      }
    },
    "request": {
      "method": "POST",
      "url": "Encounter/5ca62965b8484628b8de1fcd"
    }
  }, {
    "fullUrl": "https://madie.cms.gov/Encounter/5ca62965b8484628b8de1fcf",
    "resource": {
      "resourceType": "Encounter",
      "id": "5ca62965b8484628b8de1fcf",
      "meta": {
        "profile": [ "http://hl7.org/fhir/us/qicore/StructureDefinition/qicore-encounter" ]
      },
      "status": "finished",
      "class": {
        "system": "http://terminology.hl7.org/CodeSystem/v3-ActCode",
        "code": "IMP",
        "display": "inpatient encounter"
      },
      "type": [ {
        "coding": [ {
          "system": "http://snomed.info/sct",
          "code": "8715000"
        } ]
      } ],
      "subject": {
        "reference": "Patient/9b6d2fc2-6e25-4c0a-b4cb-3ca7f85be9b4"
      },
      "period": {
        "start": "2025-11-01T08:00:00+00:00",
        "end": "2025-11-26T08:15:00+00:00"
      },
      "length": {
        "value": 25.0,
        "unit": "days"
      }
    },
    "request": {
      "method": "POST",
      "url": "Encounter/5ca62965b8484628b8de1fcf"
    }
  }, {
    "fullUrl": "https://madie.cms.gov/Encounter/6033f4fe3d5f550000fb8ba4",
    "resource": {
      "resourceType": "Encounter",
      "id": "6033f4fe3d5f550000fb8ba4",
      "meta": {
        "profile": [ "http://hl7.org/fhir/us/qicore/StructureDefinition/qicore-encounter" ]
      },
      "status": "finished",
      "class": {
        "system": "http://terminology.hl7.org/CodeSystem/v3-ActCode",
        "code": "OBSENC",
        "display": "observation encounter"
      },
      "type": [ {
        "coding": [ {
          "system": "http://snomed.info/sct",
          "code": "448951000124107"
        } ]
      } ],
      "subject": {
        "reference": "Patient/9b6d2fc2-6e25-4c0a-b4cb-3ca7f85be9b4"
      },
      "period": {
        "start": "2025-11-01T05:20:00+00:00",
        "end": "2025-11-01T06:30:00+00:00"
      }
    },
    "request": {
      "method": "POST",
      "url": "Encounter/6033f4fe3d5f550000fb8ba4"
    }
  }, {
    "fullUrl": "https://madie.cms.gov/Procedure/5ca62965b8484628b8de1fd0",
    "resource": {
      "resourceType": "Procedure",
      "id": "5ca62965b8484628b8de1fd0",
      "meta": {
        "profile": [ "http://hl7.org/fhir/us/qicore/StructureDefinition/qicore-procedure" ]
      },
      "extension": [ {
        "url": "http://hl7.org/fhir/us/qicore/StructureDefinition/qicore-recorded",
        "valueDateTime": "2012-12-04T09:35:00-04:00"
      } ],
      "status": "in-progress",
      "code": {
        "coding": [ {
          "system": "http://snomed.info/sct",
          "code": "133918004"
        } ]
      },
      "subject": {
        "reference": "Patient/9b6d2fc2-6e25-4c0a-b4cb-3ca7f85be9b4"
      },
      "performedPeriod": {
        "start": "2025-10-31T06:00:00+00:00"
      }
    },
    "request": {
      "method": "POST",
      "url": "Procedure/5ca62965b8484628b8de1fd0"
    }
  }, {
    "fullUrl": "https://madie.cms.gov/Coverage/5fa041631c76ba66d9959334",
    "resource": {
      "resourceType": "Coverage",
      "id": "5fa041631c76ba66d9959334",
      "status": "active",
      "beneficiary": {
        "reference": "Patient/9b6d2fc2-6e25-4c0a-b4cb-3ca7f85be9b4"
      },
      "period": {
        "start": "1974-01-02T08:00:00+00:00"
      },
      "payor": [ {
        "reference": "Organization/123456"
      } ]
    },
    "request": {
      "method": "POST",
      "url": "Coverage/5fa041631c76ba66d9959334"
    }
  }, {
    "fullUrl": "https://madie.cms.gov/Organization/123456",
    "resource": {
      "resourceType": "Organization",
      "id": "123456",
      "meta": {
        "profile": [ "http://hl7.org/fhir/us/qicore/StructureDefinition/qicore-organization" ]
      },
      "identifier": [ {
        "use": "temp",
        "system": "urn:oid:2.16.840.1.113883.4.4",
        "value": "21-3259825"
      } ],
      "active": true,
      "type": [ {
        "coding": [ {
          "system": "http://terminology.hl7.org/CodeSystem/organization-type",
          "code": "pay",
          "display": "Payer"
        } ]
      } ],
      "name": "Blue Cross Blue Shield of Texas",
      "telecom": [ {
        "system": "phone",
        "value": "(+1) 972-766-6900"
      } ],
      "address": [ {
        "use": "billing",
        "type": "postal",
        "line": [ "P.O. Box 660044" ],
        "city": "Dallas",
        "state": "TX",
        "postalCode": "75266-0044",
        "country": "USA"
      } ]
    },
    "request": {
      "method": "POST",
      "url": "Organization/123456"
    }
  }, {
    "fullUrl": "https://madie.cms.gov/Practitioner/practitioner-123456",
    "resource": {
      "resourceType": "Practitioner",
      "id": "practitioner-123456",
      "identifier": [ {
        "system": "http://hl7.org/fhir/sid/us-npi",
        "value": "123456"
      } ],
      "name": [ {
        "family": "Evil",
        "prefix": [ "Dr" ]
      } ]
    },
    "request": {
      "method": "POST",
      "url": "Practitioner/practitioner-123456"
    }
  }, {
    "fullUrl": "https://madie.cms.gov/MeasureReport/ede28918-bb98-454a-af8b-a801b90e5c09",
    "resource": {
      "resourceType": "MeasureReport",
      "id": "ede28918-bb98-454a-af8b-a801b90e5c09",
      "meta": {
        "profile": [ "http://hl7.org/fhir/us/cqfmeasures/StructureDefinition/test-case-cqfm" ]
      },
      "contained": [ {
        "resourceType": "Parameters",
        "id": "0a250f4c-5025-434c-9545-17a0336c4edf-parameters",
        "parameter": [ {
          "name": "subject",
          "valueString": "9b6d2fc2-6e25-4c0a-b4cb-3ca7f85be9b4"
        } ]
      } ],
      "extension": [ {
        "url": "http://hl7.org/fhir/us/cqfmeasures/StructureDefinition/cqfm-inputParameters",
        "valueReference": {
          "reference": "#0a250f4c-5025-434c-9545-17a0336c4edf-parameters"
        }
      }, {
        "url": "http://hl7.org/fhir/us/cqfmeasures/StructureDefinition/cqfm-testCaseDescription",
        "valueMarkdown": "comfort measures performed in Observation, and Obs > 1hr prior to Adm. This case fails because CMO is 1 day before Adm.\n"
      } ],
      "modifierExtension": [ {
        "url": "http://hl7.org/fhir/us/cqfmeasures/StructureDefinition/cqfm-isTestCase",
        "valueBoolean": true
      } ],
      "status": "complete",
      "type": "individual",
      "measure": "https://madie.cms.gov/Measure/VenousThromboembolismProphylaxisFHIR",
      "period": {
        "start": "2025-01-01",
        "end": "2025-12-31"
      },
      "group": [ {
        "population": [ {
          "code": {
            "coding": [ {
              "system": "http://terminology.hl7.org/CodeSystem/measure-population",
              "code": "initial-population",
              "display": "Initial Population"
            } ]
          },
          "count": 1
        }, {
          "code": {
            "coding": [ {
              "system": "http://terminology.hl7.org/CodeSystem/measure-population",
              "code": "denominator",
              "display": "Denominator"
            } ]
          },
          "count": 1
        }, {
          "code": {
            "coding": [ {
              "system": "http://terminology.hl7.org/CodeSystem/measure-population",
              "code": "denominator-exclusion",
              "display": "Denominator Exclusion"
            } ]
          },
          "count": 0
        }, {
          "code": {
            "coding": [ {
              "system": "http://terminology.hl7.org/CodeSystem/measure-population",
              "code": "numerator",
              "display": "Numerator"
            } ]
          },
          "count": 0
        } ]
      } ],
      "evaluatedResource": [ {
        "reference": "https://madie.cms.gov/Patient/9b6d2fc2-6e25-4c0a-b4cb-3ca7f85be9b4"
      }, {
        "reference": "https://madie.cms.gov/Encounter/5ca62965b8484628b8de1fcd"
      }, {
        "reference": "https://madie.cms.gov/Encounter/5ca62965b8484628b8de1fcf"
      }, {
        "reference": "https://madie.cms.gov/Encounter/6033f4fe3d5f550000fb8ba4"
      }, {
        "reference": "https://madie.cms.gov/Procedure/5ca62965b8484628b8de1fd0"
      }, {
        "reference": "https://madie.cms.gov/Coverage/5fa041631c76ba66d9959334"
      }, {
        "reference": "https://madie.cms.gov/Organization/123456"
      }, {
        "reference": "https://madie.cms.gov/Practitioner/practitioner-123456"
      } ]
    },
    "request": {
      "method": "POST",
      "url": "MeasureReport/ede28918-bb98-454a-af8b-a801b90e5c09"
    }
  } ]
}