{"resourceType":"Bundle","id":"tests-27fca7ba-ef00-44ec-8d97-919908f42495-bundle","type":"transaction","entry":[{"fullUrl":"https://madie.cms.gov/Patient/27fca7ba-ef00-44ec-8d97-919908f42495","resource":{"resourceType":"Patient","id":"27fca7ba-ef00-44ec-8d97-919908f42495","meta":{"profile":["http://hl7.org/fhir/us/qicore/StructureDefinition/qicore-patient"]},"extension":[{"url":"http://hl7.org/fhir/us/core/StructureDefinition/us-core-race","extension":[{"url":"ombCategory","valueCoding":{"system":"urn:oid:2.16.840.1.113883.6.238","code":"2054-5","display":"Black or African American"}},{"url":"text","valueString":"Black or African American"}]},{"url":"http://hl7.org/fhir/us/core/StructureDefinition/us-core-ethnicity","extension":[{"url":"ombCategory","valueCoding":{"system":"urn:oid:2.16.840.1.113883.6.238","code":"2186-5","display":"Not Hispanic or Latino"}},{"url":"text","valueString":"Not Hispanic or Latino"}]}],"identifier":[{"type":{"coding":[{"system":"http://terminology.hl7.org/CodeSystem/v2-0203","code":"MR"}]},"system":"https://bonnie-fhir.healthit.gov/","value":"463131313187656"}],"name":[{"family":"NUMERPass","given":["ADTConcurrentWithDx"]}],"gender":"male","birthDate":"1973-06-15"},"request":{"method":"PUT","url":"Patient/27fca7ba-ef00-44ec-8d97-919908f42495"}},{"fullUrl":"https://madie.cms.gov/Encounter/98965313","resource":{"resourceType":"Encounter","id":"205a2f61-ae88-4c8b-b9b0-668c731a620e","meta":{"profile":["http://hl7.org/fhir/us/qicore/StructureDefinition/qicore-encounter"]},"status":"finished","class":{"system":"http://terminology.hl7.org/CodeSystem/v3-ActCode","code":"AMB","display":"ambulatory"},"type":[{"coding":[{"system":"http://snomed.info/sct","version":"http://snomed.info/sct/731000124108/version/20240301","code":"185463005","display":"Visit out of hours (procedure)"}]}],"subject":{"reference":"Patient/27fca7ba-ef00-44ec-8d97-919908f42495"},"period":{"start":"2025-05-01T08:00:00.000+00:00","end":"2025-05-04T08:15:00.000+00:00"}},"request":{"method":"PUT","url":"Encounter/205a2f61-ae88-4c8b-b9b0-668c731a620e"}},{"fullUrl":"https://madie.cms.gov/Condition/35463463113","resource":{"resourceType":"Condition","id":"43a5ab56-5687-4bd5-8f44-48bd22efaee2","meta":{"profile":["http://hl7.org/fhir/us/qicore/StructureDefinition/qicore-condition"]},"clinicalStatus":{"coding":[{"system":"http://terminology.hl7.org/CodeSystem/condition-clinical","code":"active","display":"Active","userSelected":true}]},"verificationStatus":{"coding":[{"system":"http://terminology.hl7.org/CodeSystem/condition-ver-status","code":"confirmed"}]},"category":[{"coding":[{"system":"http://terminology.hl7.org/CodeSystem/condition-category","code":"problem-list-item","display":"Problem List Item"}]}],"code":{"coding":[{"system":"http://snomed.info/sct","version":"http://snomed.info/sct/731000124108/version/20240301","code":"254900004","display":"Carcinoma of prostate (disorder)"}]},"subject":{"reference":"Patient/27fca7ba-ef00-44ec-8d97-919908f42495"},"onsetPeriod":{"start":"2025-05-04T08:00:00.000+00:00"}},"request":{"method":"PUT","url":"Condition/43a5ab56-5687-4bd5-8f44-48bd22efaee2"}},{"fullUrl":"https://madie.cms.gov/Observation/1313113","resource":{"resourceType":"Observation","id":"bced30cb-d9eb-4e11-9d53-aa50def09c1f","meta":{"profile":["http://hl7.org/fhir/us/qicore/StructureDefinition/qicore-observation"]},"status":"final","category":[{"coding":[{"system":"http://terminology.hl7.org/CodeSystem/observation-category","code":"imaging","display":"Imaging"}]}],"code":{"coding":[{"system":"http://loinc.org","version":"2.76","code":"38265-5","display":"DXA Radius and Ulna [T-score] Bone density"}]},"subject":{"reference":"Patient/27fca7ba-ef00-44ec-8d97-919908f42495"},"effectivePeriod":{"start":"2025-08-01T10:00:00.000+00:00"}},"request":{"method":"PUT","url":"Observation/bced30cb-d9eb-4e11-9d53-aa50def09c1f"}},{"fullUrl":"https://madie.cms.gov/Practitioner/646346","resource":{"resourceType":"Practitioner","id":"fb95f8a2-7600-4033-b846-8196b3aa56b9","meta":{"profile":["http://hl7.org/fhir/us/qicore/StructureDefinition/qicore-practitioner"]},"identifier":[{"use":"temp","system":"urn:oid:2.16.840.1.113883.4.336","value":"Practitioner-23"}],"active":true,"name":[{"family":"Careful","given":["Adam"],"prefix":["Dr"]}],"address":[{"use":"home","line":["534 Erewhon St"],"city":"PleasantVille","state":"UT","postalCode":"84414"}],"qualification":[{"identifier":[{"system":"http://example.org/UniversityIdentifier","value":"12345"}],"code":{"coding":[{"system":"http://terminology.hl7.org/CodeSystem/v2-0360|2.7","code":"BS","display":"Bachelor of Science"}],"text":"Bachelor of Science"},"period":{"start":"1995"},"issuer":{"display":"Example University"}}]},"request":{"method":"PUT","url":"Practitioner/fb95f8a2-7600-4033-b846-8196b3aa56b9"}},{"fullUrl":"https://madie.cms.gov/MedicationRequest/64564646","resource":{"resourceType":"MedicationRequest","id":"5c95d322-c7c0-4acf-b8ff-ed032c3ec8f2","meta":{"profile":["http://hl7.org/fhir/us/qicore/StructureDefinition/qicore-medicationrequest"]},"status":"active","intent":"order","medicationCodeableConcept":{"coding":[{"system":"http://www.nlm.nih.gov/research/umls/rxnorm","version":"04012024","code":"1115257","display":"1.5 ML leuprolide acetate 30 MG/ML Prefilled Syringe"}]},"subject":{"reference":"Patient/27fca7ba-ef00-44ec-8d97-919908f42495"},"authoredOn":"2025-05-04T08:00:00.000+00:00","requester":{"reference":"http://myGoodHealthcare.com/fhir/Practitioner/646346"},"dosageInstruction":[{"timing":{"repeat":{"boundsPeriod":{"start":"2025-05-04T08:00:00.000+00:00","end":"2025-06-04T08:00:00.000+00:00"}}}}]},"request":{"method":"PUT","url":"MedicationRequest/5c95d322-c7c0-4acf-b8ff-ed032c3ec8f2"}},{"fullUrl":"https://madie.cms.gov/ServiceRequest/764645645","resource":{"resourceType":"ServiceRequest","id":"c0f30f19-1f71-4ac3-af74-49d70d626c32","meta":{"profile":["http://hl7.org/fhir/us/qicore/StructureDefinition/qicore-servicerequest"]},"status":"active","intent":"order","code":{"coding":[{"system":"http://snomed.info/sct","version":"http://snomed.info/sct/731000124108/version/20240301","code":"456381000124102","display":"Injection of leuprolide acetate for twelve month period (regime/therapy)"}]},"subject":{"reference":"Patient/27fca7ba-ef00-44ec-8d97-919908f42495"},"authoredOn":"2025-05-04T08:00:00.000+00:00"},"request":{"method":"PUT","url":"ServiceRequest/c0f30f19-1f71-4ac3-af74-49d70d626c32"}},{"fullUrl":"https://madie.cms.gov/MeasureReport/a974ae5a-b847-4684-ab71-b7b7b9b851cf","resource":{"resourceType":"MeasureReport","id":"a974ae5a-b847-4684-ab71-b7b7b9b851cf","meta":{"profile":["http://hl7.org/fhir/us/cqfmeasures/StructureDefinition/test-case-cqfm"]},"contained":[{"resourceType":"Parameters","id":"709c31e0-c8c7-4a57-813e-665477d9a84e-parameters","parameter":[{"name":"subject","valueString":"27fca7ba-ef00-44ec-8d97-919908f42495"}]}],"extension":[{"url":"http://hl7.org/fhir/us/cqfmeasures/StructureDefinition/cqfm-inputParameters","valueReference":{"reference":"#709c31e0-c8c7-4a57-813e-665477d9a84e-parameters"}},{"url":"http://hl7.org/fhir/us/cqfmeasures/StructureDefinition/cqfm-testCaseDescription","valueMarkdown":"Patient has diagnosis of Prostate Cancer with qualifying encounter(s) in MP  ADT given concurrent with diagnosis. DEXA within 3 mo.  Passes NUMER as expected."}],"modifierExtension":[{"url":"http://hl7.org/fhir/us/cqfmeasures/StructureDefinition/cqfm-isTestCase","valueBoolean":true}],"status":"complete","type":"individual","measure":"https://madie.cms.gov/Measure/BoneDensityProstateCancerAndrogenDeprivationTherapyFHIR","period":{"start":"2025-01-01","end":"2025-12-31"},"group":[{"population":[{"code":{"coding":[{"system":"http://terminology.hl7.org/CodeSystem/measure-population","code":"initial-population","display":"Initial Population"}]},"count":1},{"code":{"coding":[{"system":"http://terminology.hl7.org/CodeSystem/measure-population","code":"denominator","display":"Denominator"}]},"count":1},{"code":{"coding":[{"system":"http://terminology.hl7.org/CodeSystem/measure-population","code":"numerator","display":"Numerator"}]},"count":1},{"code":{"coding":[{"system":"http://terminology.hl7.org/CodeSystem/measure-population","code":"denominator-exception","display":"Denominator Exception"}]},"count":0}]}]},"request":{"method":"PUT","url":"MeasureReport/a974ae5a-b847-4684-ab71-b7b7b9b851cf"}}]}