{
  "resourceType": "Bundle",
  "id": "DENEXFail-PartialTHAProcDiffDayAsTHAProc",
  "type": "transaction",
  "entry": [ {
    "fullUrl": "https://madie.cms.gov/Patient/99ce6fa9-4214-4859-9f73-b1da82212b92",
    "resource": {
      "resourceType": "Patient",
      "id": "99ce6fa9-4214-4859-9f73-b1da82212b92",
      "meta": {
        "profile": [ "http://hl7.org/fhir/us/qicore/StructureDefinition/qicore-patient" ]
      },
      "extension": [ {
        "url": "http://hl7.org/fhir/us/core/StructureDefinition/us-core-race",
        "extension": [ {
          "url": "ombCategory",
          "valueCoding": {
            "system": "urn:oid:2.16.840.1.113883.6.238",
            "code": "2028-9",
            "display": "Asian"
          }
        }, {
          "url": "text",
          "valueString": "Asian"
        } ]
      }, {
        "url": "http://hl7.org/fhir/us/core/StructureDefinition/us-core-ethnicity",
        "extension": [ {
          "url": "ombCategory",
          "valueCoding": {
            "system": "urn:oid:2.16.840.1.113883.6.238",
            "code": "2135-2",
            "display": "Hispanic or Latino"
          }
        }, {
          "url": "text",
          "valueString": "Hispanic or Latino"
        } ]
      } ],
      "identifier": [ {
        "system": "http://hospital.smarthealthit.org",
        "value": "999999995"
      } ],
      "name": [ {
        "family": "Bertha",
        "given": [ "Betty" ]
      } ],
      "gender": "female",
      "birthDate": "2006-01-01"
    },
    "request": {
      "method": "PUT",
      "url": "Patient/99ce6fa9-4214-4859-9f73-b1da82212b92"
    }
  }, {
    "fullUrl": "https://madie.cms.gov/Procedure/Procedure-16",
    "resource": {
      "resourceType": "Procedure",
      "id": "Procedure-16",
      "meta": {
        "profile": [ "http://hl7.org/fhir/us/qicore/StructureDefinition/qicore-procedure" ]
      },
      "extension": [ {
        "url": "http://hl7.org/fhir/us/qicore/StructureDefinition/qicore-recorded",
        "valueDateTime": "2025-11-01T00:00:00.000Z"
      } ],
      "status": "completed",
      "code": {
        "coding": [ {
          "system": "http://www.cms.gov/Medicare/Coding/ICD10",
          "code": "0SR9019",
          "display": "Replacement of Right Hip Joint with Metal Synthetic Substitute, Cemented, Open Approach"
        } ]
      },
      "subject": {
        "reference": "Patient/99ce6fa9-4214-4859-9f73-b1da82212b92"
      },
      "performedPeriod": {
        "start": "2023-11-01T00:00:00.000Z",
        "end": "2023-11-01T01:00:00.000Z"
      }
    },
    "request": {
      "method": "PUT",
      "url": "Procedure/Procedure-16"
    }
  }, {
    "fullUrl": "https://madie.cms.gov/Encounter/Encounter-16",
    "resource": {
      "resourceType": "Encounter",
      "id": "Encounter-16",
      "meta": {
        "profile": [ "http://hl7.org/fhir/us/qicore/StructureDefinition/qicore-encounter" ]
      },
      "status": "finished",
      "class": {
        "system": "http://terminology.hl7.org/CodeSystem/v3-ActCode",
        "code": "AMB",
        "display": "ambulatory"
      },
      "type": [ {
        "coding": [ {
          "system": "http://snomed.info/sct",
          "code": "281036007",
          "display": "Follow-up consultation (procedure)"
        } ]
      } ],
      "subject": {
        "reference": "Patient/99ce6fa9-4214-4859-9f73-b1da82212b92"
      },
      "period": {
        "start": "2024-11-01T00:00:00.000Z",
        "end": "2024-11-01T01:15:00.000Z"
      }
    },
    "request": {
      "method": "PUT",
      "url": "Encounter/Encounter-16"
    }
  }, {
    "fullUrl": "https://madie.cms.gov/Procedure/Procedure-16.1",
    "resource": {
      "resourceType": "Procedure",
      "id": "Procedure-16.1",
      "meta": {
        "profile": [ "http://hl7.org/fhir/us/qicore/StructureDefinition/qicore-procedure" ]
      },
      "extension": [ {
        "url": "http://hl7.org/fhir/us/qicore/StructureDefinition/qicore-recorded",
        "valueDateTime": "2023-11-01T00:00:00.000Z"
      } ],
      "status": "completed",
      "code": {
        "coding": [ {
          "system": "http://www.cms.gov/Medicare/Coding/ICD10",
          "code": "0SRA009",
          "display": "Replacement of Right Hip Joint, Acetabular Surface with Polyethylene Synthetic Substitute, Cemented, Open Approach"
        } ]
      },
      "subject": {
        "reference": "Patient/99ce6fa9-4214-4859-9f73-b1da82212b92"
      },
      "performedPeriod": {
        "start": "2023-10-31T00:00:00.000Z",
        "end": "2023-10-31T11:59:59.000Z"
      }
    },
    "request": {
      "method": "PUT",
      "url": "Procedure/Procedure-16.1"
    }
  }, {
    "fullUrl": "https://madie.cms.gov/MeasureReport/b0f802b8-1c88-4f8b-9832-30d4c2a2d92d",
    "resource": {
      "resourceType": "MeasureReport",
      "id": "b0f802b8-1c88-4f8b-9832-30d4c2a2d92d",
      "meta": {
        "profile": [ "http://hl7.org/fhir/us/cqfmeasures/StructureDefinition/test-case-cqfm" ]
      },
      "contained": [ {
        "resourceType": "Parameters",
        "id": "5df017b5-c14f-4522-be4c-c88994bbf78d-parameters",
        "parameter": [ {
          "name": "subject",
          "valueString": "99ce6fa9-4214-4859-9f73-b1da82212b92"
        } ]
      } ],
      "extension": [ {
        "url": "http://hl7.org/fhir/us/cqfmeasures/StructureDefinition/cqfm-inputParameters",
        "valueReference": {
          "reference": "#5df017b5-c14f-4522-be4c-c88994bbf78d-parameters"
        }
      }, {
        "url": "http://hl7.org/fhir/us/cqfmeasures/StructureDefinition/cqfm-testCaseDescription",
        "valueMarkdown": "Patient Has Partial Hip Arthroplasty Procedure on a different day than THAProcedure"
      } ],
      "modifierExtension": [ {
        "url": "http://hl7.org/fhir/us/cqfmeasures/StructureDefinition/cqfm-isTestCase",
        "valueBoolean": true
      } ],
      "status": "complete",
      "type": "individual",
      "measure": "https://madie.cms.gov/Measure/FunctionalStatusAssessmentforTotalHipReplacementFHIR",
      "period": {
        "start": "2025-01-01",
        "end": "2025-12-31"
      },
      "group": [ {
        "population": [ {
          "code": {
            "coding": [ {
              "system": "http://terminology.hl7.org/CodeSystem/measure-population",
              "code": "initial-population",
              "display": "Initial Population"
            } ]
          },
          "count": 1
        }, {
          "code": {
            "coding": [ {
              "system": "http://terminology.hl7.org/CodeSystem/measure-population",
              "code": "denominator",
              "display": "Denominator"
            } ]
          },
          "count": 1
        }, {
          "code": {
            "coding": [ {
              "system": "http://terminology.hl7.org/CodeSystem/measure-population",
              "code": "denominator-exclusion",
              "display": "Denominator Exclusion"
            } ]
          },
          "count": 0
        }, {
          "code": {
            "coding": [ {
              "system": "http://terminology.hl7.org/CodeSystem/measure-population",
              "code": "numerator",
              "display": "Numerator"
            } ]
          },
          "count": 0
        } ]
      } ],
      "evaluatedResource": [ {
        "reference": "Patient/99ce6fa9-4214-4859-9f73-b1da82212b92"
      }, {
        "reference": "Procedure/Procedure-16"
      }, {
        "reference": "Encounter/Encounter-16"
      }, {
        "reference": "Procedure/Procedure-16.1"
      } ]
    },
    "request": {
      "method": "PUT",
      "url": "MeasureReport/b0f802b8-1c88-4f8b-9832-30d4c2a2d92d"
    }
  } ]
}