{"resourceType":"Bundle","id":"tests-9e10bb11-1b8b-4526-aa57-bcc5582c41e8-bundle","type":"transaction","entry":[{"fullUrl":"https://madie.cms.gov/Patient/9e10bb11-1b8b-4526-aa57-bcc5582c41e8","resource":{"resourceType":"Patient","id":"9e10bb11-1b8b-4526-aa57-bcc5582c41e8","meta":{"profile":["http://hl7.org/fhir/us/qicore/StructureDefinition/qicore-patient"]},"extension":[{"url":"http://hl7.org/fhir/us/core/StructureDefinition/us-core-race","extension":[{"url":"ombCategory","valueCoding":{"system":"urn:oid:2.16.840.1.113883.6.238","code":"2106-3","display":"White","userSelected":true}},{"url":"text","valueString":"White"}]},{"url":"http://hl7.org/fhir/us/core/StructureDefinition/us-core-ethnicity","extension":[{"url":"ombCategory","valueCoding":{"system":"urn:oid:2.16.840.1.113883.6.238","code":"2135-2","display":"Hispanic or Latino","userSelected":true}},{"url":"text","valueString":"Hispanic or Latino"}]}],"identifier":[{"type":{"coding":[{"system":"http://terminology.hl7.org/CodeSystem/v2-0203","code":"MR"}]},"system":"https://goodhealth.healthit.gov/","value":"64270cbea7ffa60ebe02488f"}],"name":[{"family":"IPFail","given":["DementiaDxNullOnsetPeriodStart"]}],"gender":"male","birthDate":"1968-03-02"},"request":{"method":"PUT","url":"Patient/9e10bb11-1b8b-4526-aa57-bcc5582c41e8"}},{"fullUrl":"https://madie.cms.gov/Condition/2300003203","resource":{"resourceType":"Condition","id":"2300003203","meta":{"profile":["http://hl7.org/fhir/us/qicore/StructureDefinition/qicore-condition"]},"clinicalStatus":{"coding":[{"system":"http://terminology.hl7.org/CodeSystem/condition-clinical","code":"active","display":"Active","userSelected":true}]},"verificationStatus":{"coding":[{"system":"http://terminology.hl7.org/CodeSystem/condition-ver-status","code":"confirmed","display":"Confirmed","userSelected":true}]},"category":[{"coding":[{"system":"http://terminology.hl7.org/CodeSystem/condition-category","code":"encounter-diagnosis","display":"Encounter Diagnosis","userSelected":true}]}],"code":{"coding":[{"system":"http://snomed.info/sct","version":"http://snomed.info/sct/731000124108/version/20230301","code":"10532003","display":"Primary degenerative dementia of the Alzheimer type, presenile onset, with depression (disorder)"}]},"subject":{"reference":"Patient/9e10bb11-1b8b-4526-aa57-bcc5582c41e8"},"onsetPeriod":{"end":"2026-01-01T08:00:00.000+00:00"}},"request":{"method":"PUT","url":"Condition/2300003203"}},{"fullUrl":"https://madie.cms.gov/Encounter/2300003204","resource":{"resourceType":"Encounter","id":"2300003204","meta":{"profile":["http://hl7.org/fhir/us/qicore/StructureDefinition/qicore-encounter"]},"status":"finished","class":{"system":"http://terminology.hl7.org/CodeSystem/v3-ActCode","code":"AMB","display":"ambulatory","userSelected":true},"type":[{"coding":[{"system":"http://www.ama-assn.org/go/cpt","version":"2023","code":"99212","userSelected":true}]}],"subject":{"reference":"Patient/9e10bb11-1b8b-4526-aa57-bcc5582c41e8"},"period":{"start":"2025-03-02T08:00:00.000+00:00","end":"2025-03-02T08:35:00.000+00:00"}},"request":{"method":"PUT","url":"Encounter/2300003204"}},{"fullUrl":"https://madie.cms.gov/Encounter/23000032017","resource":{"resourceType":"Encounter","id":"23000032017","meta":{"profile":["http://hl7.org/fhir/us/qicore/StructureDefinition/qicore-encounter"]},"status":"finished","class":{"system":"http://terminology.hl7.org/CodeSystem/v3-ActCode","code":"AMB","display":"ambulatory","userSelected":true},"type":[{"coding":[{"system":"http://snomed.info/sct","version":"http://snomed.info/sct/731000124108/version/20230301","code":"18170008","display":"Subsequent nursing facility visit (procedure)"}]}],"subject":{"reference":"Patient/9e10bb11-1b8b-4526-aa57-bcc5582c41e8"},"period":{"start":"2025-08-15T08:00:00.000+00:00","end":"2025-08-15T08:35:00.000+00:00"}},"request":{"method":"PUT","url":"Encounter/23000032017"}},{"fullUrl":"https://madie.cms.gov/MeasureReport/a4427d66-1bad-4709-a556-38e641bbab2a","resource":{"resourceType":"MeasureReport","id":"a4427d66-1bad-4709-a556-38e641bbab2a","meta":{"profile":["http://hl7.org/fhir/us/cqfmeasures/StructureDefinition/test-case-cqfm"]},"contained":[{"resourceType":"Parameters","id":"51fa7c3b-2f20-4be9-b391-3d6506a71690-parameters","parameter":[{"name":"subject","valueString":"9e10bb11-1b8b-4526-aa57-bcc5582c41e8"}]}],"extension":[{"url":"http://hl7.org/fhir/us/cqfmeasures/StructureDefinition/cqfm-inputParameters","valueReference":{"reference":"#51fa7c3b-2f20-4be9-b391-3d6506a71690-parameters"}},{"url":"http://hl7.org/fhir/us/cqfmeasures/StructureDefinition/cqfm-testCaseDescription","valueMarkdown":"Patient with 2 qualifying encounters and Dementia Dx but with onset period start as null"}],"modifierExtension":[{"url":"http://hl7.org/fhir/us/cqfmeasures/StructureDefinition/cqfm-isTestCase","valueBoolean":true}],"status":"complete","type":"individual","measure":"https://madie.cms.gov/Measure/DementiaCognitiveAssessmentFHIR","period":{"start":"2025-01-01","end":"2025-12-31"},"group":[{"population":[{"code":{"coding":[{"system":"http://terminology.hl7.org/CodeSystem/measure-population","code":"initial-population","display":"Initial Population"}]},"count":0},{"code":{"coding":[{"system":"http://terminology.hl7.org/CodeSystem/measure-population","code":"denominator","display":"Denominator"}]},"count":0},{"code":{"coding":[{"system":"http://terminology.hl7.org/CodeSystem/measure-population","code":"numerator","display":"Numerator"}]},"count":0},{"code":{"coding":[{"system":"http://terminology.hl7.org/CodeSystem/measure-population","code":"denominator-exception","display":"Denominator Exception"}]},"count":0}]}],"evaluatedResource":[{"reference":"Patient/9e10bb11-1b8b-4526-aa57-bcc5582c41e8"},{"reference":"Condition/2300003203"},{"reference":"Encounter/2300003204"},{"reference":"Encounter/23000032017"}]},"request":{"method":"PUT","url":"MeasureReport/a4427d66-1bad-4709-a556-38e641bbab2a"}}]}