{"resourceType":"Bundle","id":"tests-8b089bcc-d9a7-40c8-8745-5ec632ac3fc9-bundle","type":"transaction","entry":[{"fullUrl":"https://madie.cms.gov/Patient/8b089bcc-d9a7-40c8-8745-5ec632ac3fc9","resource":{"resourceType":"Patient","id":"8b089bcc-d9a7-40c8-8745-5ec632ac3fc9","meta":{"profile":["http://hl7.org/fhir/us/qicore/StructureDefinition/qicore-patient"]},"extension":[{"url":"http://hl7.org/fhir/us/core/StructureDefinition/us-core-race","extension":[{"url":"ombCategory","valueCoding":{"system":"urn:oid:2.16.840.1.113883.6.238","code":"2054-5","display":"Black or African American","userSelected":true}},{"url":"text","valueString":"Black or African American"}]},{"url":"http://hl7.org/fhir/us/core/StructureDefinition/us-core-ethnicity","extension":[{"url":"ombCategory","valueCoding":{"system":"urn:oid:2.16.840.1.113883.6.238","code":"2186-5","display":"Not Hispanic or Latino","userSelected":true}},{"url":"text","valueString":"Not Hispanic or Latino"}]}],"identifier":[{"type":{"coding":[{"system":"http://terminology.hl7.org/CodeSystem/v2-0203","code":"MR"}]},"system":"https://goodhealth.com/","value":"610d828c37a47d6ac0116a13"}],"name":[{"family":"DENEXCEPPass","given":["AssessmentNotDonePatientReason"]}],"gender":"male","birthDate":"1975-01-10"},"request":{"method":"PUT","url":"Patient/8b089bcc-d9a7-40c8-8745-5ec632ac3fc9"}},{"fullUrl":"https://madie.cms.gov/Encounter/30023001","resource":{"resourceType":"Encounter","id":"30023001","meta":{"profile":["http://hl7.org/fhir/us/qicore/StructureDefinition/qicore-encounter"]},"status":"finished","class":{"system":"http://terminology.hl7.org/CodeSystem/v3-ActCode","code":"AMB","display":"ambulatory","userSelected":true},"type":[{"coding":[{"system":"http://snomed.info/sct","version":"http://snomed.info/sct/731000124108/version/202303","code":"185460008","display":"Home visit request by patient (procedure)","userSelected":true}]}],"subject":{"reference":"Patient/3dc394cd-e73b-4843-8f30-21a545500b24"},"period":{"start":"2025-08-06T08:00:00.000+00:00","end":"2025-08-06T09:00:00.000+00:00"}},"request":{"method":"PUT","url":"Encounter/30023001"}},{"fullUrl":"https://madie.cms.gov/Condition/300230002","resource":{"resourceType":"Condition","id":"300230002","meta":{"profile":["http://hl7.org/fhir/us/qicore/StructureDefinition/qicore-condition"]},"clinicalStatus":{"coding":[{"system":"http://terminology.hl7.org/CodeSystem/condition-clinical","code":"active","display":"active","userSelected":true}]},"category":[{"coding":[{"system":"http://terminology.hl7.org/CodeSystem/condition-clinical","code":"active","display":"active","userSelected":true}]}],"code":{"coding":[{"system":"http://snomed.info/sct","version":"http://snomed.info/sct/731000124108/version/202303","code":"191451009","display":"Uncomplicated presenile dementia (disorder)","userSelected":true}]},"subject":{"reference":"Patient/3dc394cd-e73b-4843-8f30-21a545500b24"},"onsetDateTime":"2023-05-06T08:00:00.000+00:00","recordedDate":"2023-05-06T08:00:00.000+00:00"},"request":{"method":"PUT","url":"Condition/300230002"}},{"fullUrl":"https://madie.cms.gov/Encounter/300230003","resource":{"resourceType":"Encounter","id":"300230003","meta":{"profile":["http://hl7.org/fhir/us/qicore/StructureDefinition/qicore-encounter"]},"status":"finished","class":{"system":"http://terminology.hl7.org/CodeSystem/v3-ActCode","code":"AMB","display":"ambulatory","userSelected":true},"type":[{"coding":[{"system":"http://snomed.info/sct","version":"http://snomed.info/sct/731000124108/version/202303","code":"185316007","display":"Indirect encounter (procedure)","userSelected":true}]}],"subject":{"reference":"Patient/3dc394cd-e73b-4843-8f30-21a545500b24"},"period":{"start":"2025-05-06T08:00:00.000+00:00","end":"2025-05-06T08:15:00.000+00:00"}},"request":{"method":"PUT","url":"Encounter/300230003"}},{"fullUrl":"https://madie.cms.gov/Procedure/300230004","resource":{"resourceType":"Procedure","id":"300230004","meta":{"profile":["http://hl7.org/fhir/us/qicore/StructureDefinition/qicore-procedure"]},"extension":[{"url":"http://hl7.org/fhir/us/qicore/StructureDefinition/qicore-recorded","valueDateTime":"2025-05-05T09:35:00-04:00"}],"status":"completed","category":{"coding":[{"system":"http://loinc.org","version":"2.73","code":"58151-2","display":"Prior assessment Brief Interview for Mental Status (BIMS) summary score [MDSv3]","userSelected":true}]},"code":{"coding":[{"system":"http://snomed.info/sct","version":"http://snomed.info/sct/731000124108/version/202303","code":"113024001","display":"Assessment and interpretation of higher cerebral function, cognitive testing (procedure)","userSelected":true}]},"subject":{"reference":"Patient/3dc394cd-e73b-4843-8f30-21a545500b24"},"encounter":{"reference":"Encounter/home-healthcare-services-8b61"},"performedDateTime":"2025-05-06T08:00:00.000+00:00"},"request":{"method":"PUT","url":"Procedure/300230004"}},{"fullUrl":"https://madie.cms.gov/Observation/300230010","resource":{"resourceType":"Observation","id":"300230010","meta":{"profile":["http://hl7.org/fhir/us/qicore/StructureDefinition/qicore-observationnotdone"]},"extension":[{"url":"http://hl7.org/fhir/us/qicore/StructureDefinition/qicore-notDoneReason","valueCodeableConcept":{"coding":[{"system":"http://snomed.info/sct","version":"http://snomed.info/sct/731000124108/version/20230301","code":"275936005","display":"Patient noncompliance - general (situation)"}]}}],"status":"cancelled","category":[{"coding":[{"system":"http://loinc.org","version":"2.73","code":"58151-2","display":"Prior assessment Brief Interview for Mental Status (BIMS) summary score [MDSv3]","userSelected":true}]}],"code":{"coding":[{"system":"http://loinc.org","version":"2.73","code":"58151-2","display":"Prior assessment Brief Interview for Mental Status (BIMS) summary score [MDSv3]"}]},"subject":{"reference":"Patient/3dc394cd-e73b-4843-8f30-21a545500b24"},"effectiveDateTime":"2025-05-06T08:00:00.000+00:00","issued":"2025-08-06T08:59:00.000+00:00"},"request":{"method":"PUT","url":"Observation/300230010"}},{"fullUrl":"https://madie.cms.gov/MeasureReport/447bf895-af44-4d69-ae5f-15017fc120be","resource":{"resourceType":"MeasureReport","id":"447bf895-af44-4d69-ae5f-15017fc120be","meta":{"profile":["http://hl7.org/fhir/us/cqfmeasures/StructureDefinition/test-case-cqfm"]},"contained":[{"resourceType":"Parameters","id":"86e56807-3e9d-438a-97a2-7d1ee84fee47-parameters","parameter":[{"name":"subject","valueString":"8b089bcc-d9a7-40c8-8745-5ec632ac3fc9"}]}],"extension":[{"url":"http://hl7.org/fhir/us/cqfmeasures/StructureDefinition/cqfm-inputParameters","valueReference":{"reference":"#86e56807-3e9d-438a-97a2-7d1ee84fee47-parameters"}},{"url":"http://hl7.org/fhir/us/cqfmeasures/StructureDefinition/cqfm-testCaseDescription","valueMarkdown":"Patient Reason for not performing Standardized Tools Score for Assessment of Cognition is effective during Encounter"}],"modifierExtension":[{"url":"http://hl7.org/fhir/us/cqfmeasures/StructureDefinition/cqfm-isTestCase","valueBoolean":true}],"status":"complete","type":"individual","measure":"https://madie.cms.gov/Measure/DementiaCognitiveAssessmentFHIR","period":{"start":"2025-01-01","end":"2025-12-31"},"group":[{"population":[{"code":{"coding":[{"system":"http://terminology.hl7.org/CodeSystem/measure-population","code":"initial-population","display":"Initial Population"}]},"count":1},{"code":{"coding":[{"system":"http://terminology.hl7.org/CodeSystem/measure-population","code":"denominator","display":"Denominator"}]},"count":1},{"code":{"coding":[{"system":"http://terminology.hl7.org/CodeSystem/measure-population","code":"numerator","display":"Numerator"}]},"count":0},{"code":{"coding":[{"system":"http://terminology.hl7.org/CodeSystem/measure-population","code":"denominator-exception","display":"Denominator Exception"}]},"count":1}]}],"evaluatedResource":[{"reference":"Patient/8b089bcc-d9a7-40c8-8745-5ec632ac3fc9"},{"reference":"Encounter/30023001"},{"reference":"Condition/300230002"},{"reference":"Encounter/300230003"},{"reference":"Procedure/300230004"},{"reference":"Observation/300230010"}]},"request":{"method":"PUT","url":"MeasureReport/447bf895-af44-4d69-ae5f-15017fc120be"}}]}