{"resourceType":"Bundle","id":"tests-fbf911c4-59a0-4002-a4c6-aabae489d90d-bundle","type":"transaction","entry":[{"fullUrl":"Patient/fbf911c4-59a0-4002-a4c6-aabae489d90d","resource":{"resourceType":"Patient","id":"fbf911c4-59a0-4002-a4c6-aabae489d90d","meta":{"profile":["http://hl7.org/fhir/us/qicore/StructureDefinition/qicore-patient"]},"extension":[{"url":"http://hl7.org/fhir/us/core/StructureDefinition/us-core-race","extension":[{"url":"ombCategory","valueCoding":{"system":"urn:oid:2.16.840.1.113883.6.238","code":"2028-9","display":"Asian","userSelected":true}},{"url":"text","valueString":"Asian"}]},{"url":"http://hl7.org/fhir/us/core/StructureDefinition/us-core-ethnicity","extension":[{"url":"ombCategory","valueCoding":{"system":"urn:oid:2.16.840.1.113883.6.238","code":"2186-5","display":"Not Hispanic or Latino","userSelected":true}},{"url":"text","valueString":"Not Hispanic or Latino"}]}],"identifier":[{"type":{"coding":[{"system":"http://terminology.hl7.org/CodeSystem/v2-0203","code":"MR"}]},"system":"https://bonnie-fhir.healthit.gov/","value":"610d3a53be3d5dcbc43d6777"}],"name":[{"family":"IPFail","given":["2ndEncounterB4MPEdge"]}],"gender":"female","birthDate":"1978-03-02"},"request":{"method":"PUT","url":"Patient/fbf911c4-59a0-4002-a4c6-aabae489d90d"}},{"fullUrl":"Encounter/E-300320001","resource":{"resourceType":"Encounter","id":"E-300320001","meta":{"profile":["http://hl7.org/fhir/us/qicore/StructureDefinition/qicore-encounter"]},"status":"finished","class":{"system":"http://terminology.hl7.org/CodeSystem/v3-ActCode","code":"AMB","display":"ambulatory","userSelected":true},"type":[{"coding":[{"system":"http://snomed.info/sct","version":"http://snomed.info/sct/731000124108/version/202303","code":"185460008","display":"Home visit request by patient (procedure)","userSelected":true}]}],"subject":{"reference":"Patient/fbf911c4-59a0-4002-a4c6-aabae489d90d"},"period":{"start":"2025-08-06T08:00:00.000+00:00","end":"2025-08-10T08:15:00.000+00:00"}},"request":{"method":"PUT","url":"Encounter/E-300320001"}},{"fullUrl":"Condition/C-300320002","resource":{"resourceType":"Condition","id":"C-300320002","meta":{"profile":["http://hl7.org/fhir/us/qicore/StructureDefinition/qicore-condition"]},"clinicalStatus":{"coding":[{"system":"http://terminology.hl7.org/CodeSystem/condition-clinical","code":"active","display":"active","userSelected":true}]},"category":[{"coding":[{"system":"http://terminology.hl7.org/CodeSystem/condition-category","code":"problem-list-item","display":"Problem List Item"}]}],"code":{"coding":[{"system":"http://snomed.info/sct","version":"http://snomed.info/sct/731000124108/version/202303","code":"10349009","display":"Multi-infarct dementia with delirium (disorder)","userSelected":true}]},"subject":{"reference":"Patient/fbf911c4-59a0-4002-a4c6-aabae489d90d"},"onsetDateTime":"2025-08-06T08:00:00.000+00:00"},"request":{"method":"PUT","url":"Condition/C-300320002"}},{"fullUrl":"Encounter/E-300320003","resource":{"resourceType":"Encounter","id":"E-300320003","meta":{"profile":["http://hl7.org/fhir/us/qicore/StructureDefinition/qicore-encounter"]},"status":"finished","class":{"system":"http://terminology.hl7.org/CodeSystem/v3-ActCode","code":"AMB","display":"ambulatory","userSelected":true},"type":[{"coding":[{"system":"http://snomed.info/sct","version":"http://snomed.info/sct/731000124108/version/202303","code":"185316007","display":"Indirect encounter (procedure)","userSelected":true}]}],"subject":{"reference":"Patient/fbf911c4-59a0-4002-a4c6-aabae489d90d"},"period":{"start":"2023-12-31T23:00:00.000+00:00","end":"2023-12-31T23:15:00.000+00:00"},"diagnosis":[{"condition":{"reference":"Condition/dementia-mental-degenerations-5d61"}}]},"request":{"method":"PUT","url":"Encounter/E-300320003"}},{"fullUrl":"Condition/P-300320004","resource":{"resourceType":"Condition","id":"P-300320004","category":[{"coding":[{"system":"http://terminology.hl7.org/CodeSystem/condition-category","code":"encounter-diagnosis","display":"Encounter Diagnosis"}]}],"code":{"coding":[{"system":"http://snomed.info/sct","version":"http://snomed.info/sct/731000124108/version/202303","code":"10349009","display":"Multi-infarct dementia with delirium (disorder)","userSelected":true}]},"subject":{"reference":"Patient/fbf911c4-59a0-4002-a4c6-aabae489d90d"},"onsetPeriod":{"start":"2023-08-05T08:00:00.000+00:00","end":"2023-08-11T08:15:00.000+00:00"}},"request":{"method":"PUT","url":"Condition/P-300320004"}},{"fullUrl":"MeasureReport/a53dbdaa-718c-42ef-a4ad-398d6b6adc36","resource":{"resourceType":"MeasureReport","id":"a53dbdaa-718c-42ef-a4ad-398d6b6adc36","meta":{"profile":["http://hl7.org/fhir/us/cqfmeasures/StructureDefinition/test-case-cqfm"]},"contained":[{"resourceType":"Parameters","id":"2576429b-96cb-4220-8398-181a86241021-parameters","parameter":[{"name":"subject","valueString":"fbf911c4-59a0-4002-a4c6-aabae489d90d"}]}],"extension":[{"url":"http://hl7.org/fhir/us/cqfmeasures/StructureDefinition/cqfm-inputParameters","valueReference":{"reference":"#2576429b-96cb-4220-8398-181a86241021-parameters"}},{"url":"http://hl7.org/fhir/us/cqfmeasures/StructureDefinition/cqfm-testCaseDescription","valueMarkdown":"Second visit which would put patient in initial population is 1 hr before Measurement Period"}],"modifierExtension":[{"url":"http://hl7.org/fhir/us/cqfmeasures/StructureDefinition/cqfm-isTestCase","valueBoolean":true}],"status":"complete","type":"individual","measure":"Measure/DementiaCognitiveAssessmentFHIR","period":{"start":"2025-01-01","end":"2025-12-31"},"group":[{"population":[{"code":{"coding":[{"system":"http://terminology.hl7.org/CodeSystem/measure-population","code":"initial-population","display":"Initial Population"}]},"count":0},{"code":{"coding":[{"system":"http://terminology.hl7.org/CodeSystem/measure-population","code":"denominator","display":"Denominator"}]},"count":0},{"code":{"coding":[{"system":"http://terminology.hl7.org/CodeSystem/measure-population","code":"numerator","display":"Numerator"}]},"count":0},{"code":{"coding":[{"system":"http://terminology.hl7.org/CodeSystem/measure-population","code":"denominator-exception","display":"Denominator Exception"}]},"count":0}]}],"evaluatedResource":[{"reference":"Patient/fbf911c4-59a0-4002-a4c6-aabae489d90d"},{"reference":"Encounter/E-300320001"},{"reference":"Condition/C-300320002"},{"reference":"Encounter/E-300320003"},{"reference":"Condition/P-300320004"}]},"request":{"method":"PUT","url":"MeasureReport/a53dbdaa-718c-42ef-a4ad-398d6b6adc36"}}]}