{"resourceType":"Bundle","id":"tests-1fe16c3a-770d-44ca-bc0a-02401b3fcc56-bundle","type":"transaction","entry":[{"fullUrl":"https://madie.cms.gov/Patient/1fe16c3a-770d-44ca-bc0a-02401b3fcc56","resource":{"resourceType":"Patient","id":"1fe16c3a-770d-44ca-bc0a-02401b3fcc56","meta":{"profile":["http://hl7.org/fhir/us/qicore/StructureDefinition/qicore-patient"]},"extension":[{"url":"http://hl7.org/fhir/us/core/StructureDefinition/us-core-race","extension":[{"url":"ombCategory","valueCoding":{"system":"urn:oid:2.16.840.1.113883.6.238","code":"2106-3","display":"White","userSelected":true}},{"url":"text","valueString":"White"}]},{"url":"http://hl7.org/fhir/us/core/StructureDefinition/us-core-ethnicity","extension":[{"url":"ombCategory","valueCoding":{"system":"urn:oid:2.16.840.1.113883.6.238","code":"2135-2","display":"Hispanic or Latino","userSelected":true}},{"url":"text","valueString":"Hispanic or Latino"}]}],"identifier":[{"type":{"coding":[{"system":"http://terminology.hl7.org/CodeSystem/v2-0203","code":"MR"}]},"system":"https://goodhealth.healthit.gov/","value":"64270cbea7ffa60ebe02488f"}],"name":[{"family":"IPFail","given":["EncEnds1MinAfterMPEnd"]}],"gender":"female","birthDate":"1997-03-02"},"request":{"method":"PUT","url":"Patient/1fe16c3a-770d-44ca-bc0a-02401b3fcc56"}},{"fullUrl":"https://madie.cms.gov/Condition/2300003203","resource":{"resourceType":"Condition","id":"2300003203","meta":{"profile":["http://hl7.org/fhir/us/qicore/StructureDefinition/qicore-condition"]},"clinicalStatus":{"coding":[{"system":"http://terminology.hl7.org/CodeSystem/condition-clinical","code":"active","display":"Active","userSelected":true}]},"verificationStatus":{"coding":[{"system":"http://terminology.hl7.org/CodeSystem/condition-ver-status","code":"confirmed","display":"Confirmed","userSelected":true}]},"category":[{"coding":[{"system":"http://terminology.hl7.org/CodeSystem/condition-category","code":"encounter-diagnosis","display":"Encounter Diagnosis","userSelected":true}]}],"code":{"coding":[{"system":"http://hl7.org/fhir/sid/icd-10-cm","version":"2023","code":"G31.83","userSelected":true}]},"subject":{"reference":"Patient/1fe16c3a-770d-44ca-bc0a-02401b3fcc56"},"onsetPeriod":{"start":"2023-12-31T08:00:00.000+00:00"}},"request":{"method":"PUT","url":"Condition/2300003203"}},{"fullUrl":"https://madie.cms.gov/Encounter/2300003204","resource":{"resourceType":"Encounter","id":"2300003204","meta":{"profile":["http://hl7.org/fhir/us/qicore/StructureDefinition/qicore-encounter"]},"status":"finished","class":{"system":"http://terminology.hl7.org/CodeSystem/v3-ActCode","code":"AMB","display":"ambulatory","userSelected":true},"type":[{"coding":[{"system":"http://www.ama-assn.org/go/cpt","version":"2023","code":"99212","userSelected":true}]}],"subject":{"reference":"Patient/1fe16c3a-770d-44ca-bc0a-02401b3fcc56"},"period":{"start":"2025-03-31T08:00:00.000+00:00","end":"2025-03-31T08:35:00.000+00:00"}},"request":{"method":"PUT","url":"Encounter/2300003204"}},{"fullUrl":"https://madie.cms.gov/Encounter/23000032017","resource":{"resourceType":"Encounter","id":"23000032017","meta":{"profile":["http://hl7.org/fhir/us/qicore/StructureDefinition/qicore-encounter"]},"status":"finished","class":{"system":"http://terminology.hl7.org/CodeSystem/v3-ActCode","code":"AMB","display":"ambulatory","userSelected":true},"type":[{"coding":[{"system":"http://snomed.info/sct","version":"http://snomed.info/sct/731000124108/version/20230301","code":"410155007","display":"Occupational therapy assessment (procedure)"}]}],"subject":{"reference":"Patient/1fe16c3a-770d-44ca-bc0a-02401b3fcc56"},"period":{"start":"2025-12-31T11:30:00.000+00:00","end":"2026-01-01T00:00:00.000+00:00"}},"request":{"method":"PUT","url":"Encounter/23000032017"}},{"fullUrl":"https://madie.cms.gov/MeasureReport/5f7b31bd-81f5-4380-b65e-ae1d635509d4","resource":{"resourceType":"MeasureReport","id":"5f7b31bd-81f5-4380-b65e-ae1d635509d4","meta":{"profile":["http://hl7.org/fhir/us/cqfmeasures/StructureDefinition/test-case-cqfm"]},"contained":[{"resourceType":"Parameters","id":"153b3ce3-537b-45cc-a5d1-5050baac9747-parameters","parameter":[{"name":"subject","valueString":"1fe16c3a-770d-44ca-bc0a-02401b3fcc56"}]}],"extension":[{"url":"http://hl7.org/fhir/us/cqfmeasures/StructureDefinition/cqfm-inputParameters","valueReference":{"reference":"#153b3ce3-537b-45cc-a5d1-5050baac9747-parameters"}},{"url":"http://hl7.org/fhir/us/cqfmeasures/StructureDefinition/cqfm-testCaseDescription","valueMarkdown":"Visit End period is 1 minute after End of Measurement Period and will not meet IP criteria"}],"modifierExtension":[{"url":"http://hl7.org/fhir/us/cqfmeasures/StructureDefinition/cqfm-isTestCase","valueBoolean":true}],"status":"complete","type":"individual","measure":"https://madie.cms.gov/Measure/DementiaCognitiveAssessmentFHIR","period":{"start":"2025-01-01","end":"2025-12-31"},"group":[{"population":[{"code":{"coding":[{"system":"http://terminology.hl7.org/CodeSystem/measure-population","code":"initial-population","display":"Initial Population"}]},"count":0},{"code":{"coding":[{"system":"http://terminology.hl7.org/CodeSystem/measure-population","code":"denominator","display":"Denominator"}]},"count":0},{"code":{"coding":[{"system":"http://terminology.hl7.org/CodeSystem/measure-population","code":"numerator","display":"Numerator"}]},"count":0},{"code":{"coding":[{"system":"http://terminology.hl7.org/CodeSystem/measure-population","code":"denominator-exception","display":"Denominator Exception"}]},"count":0}]}],"evaluatedResource":[{"reference":"Patient/1fe16c3a-770d-44ca-bc0a-02401b3fcc56"},{"reference":"Condition/2300003203"},{"reference":"Encounter/2300003204"},{"reference":"Encounter/23000032017"}]},"request":{"method":"PUT","url":"MeasureReport/5f7b31bd-81f5-4380-b65e-ae1d635509d4"}}]}