{
  "resourceType": "Bundle",
  "id": "612e6b1b02c62a011f2ec7e4",
  "type": "transaction",
  "entry": [ {
    "fullUrl": "https://madie.cms.gov/Patient/fa6ecbf0-8dd9-4c03-a8ed-2bd82cb8206f",
    "resource": {
      "resourceType": "Patient",
      "id": "fa6ecbf0-8dd9-4c03-a8ed-2bd82cb8206f",
      "meta": {
        "profile": [ "http://hl7.org/fhir/us/qicore/StructureDefinition/qicore-patient" ]
      },
      "text": {
        "status": "generated",
        "div": "<div xmlns=\"http://www.w3.org/1999/xhtml\"><div class=\"hapiHeaderText\">ProphylaxisDuringSameDayOf2ndObs <b>NUMERPASS </b></div><table class=\"hapiPropertyTable\"><tbody><tr><td>Identifier</td><td>4a3cf6afd879a8f9468f9b4b43b7b032</td></tr><tr><td>Date of birth</td><td><span>02 September 2003</span></td></tr></tbody></table></div>"
      },
      "extension": [ {
        "url": "http://hl7.org/fhir/us/core/StructureDefinition/us-core-race",
        "extension": [ {
          "url": "ombCategory",
          "valueCoding": {
            "system": "urn:oid:2.16.840.1.113883.6.238",
            "code": "1002-5",
            "display": "American Indian or Alaska Native",
            "userSelected": true
          }
        }, {
          "url": "text",
          "valueString": "American Indian or Alaska Native"
        } ]
      }, {
        "url": "http://hl7.org/fhir/us/core/StructureDefinition/us-core-ethnicity",
        "extension": [ {
          "url": "ombCategory",
          "valueCoding": {
            "system": "urn:oid:2.16.840.1.113883.6.238",
            "code": "2135-2",
            "display": "Hispanic or Latino",
            "userSelected": true
          }
        }, {
          "url": "text",
          "valueString": "Hispanic or Latino"
        } ]
      } ],
      "identifier": [ {
        "type": {
          "coding": [ {
            "system": "http://terminology.hl7.org/CodeSystem/v2-0203",
            "code": "MR"
          } ]
        },
        "system": "https://bonnie-fhir.healthit.gov/",
        "value": "612e6b1b02c62a011f2ec7e4"
      } ],
      "active": true,
      "name": [ {
        "use": "usual",
        "family": "NUMERPass",
        "given": [ "ProphylaxisDuringSameDayOf2ndObs" ]
      } ],
      "gender": "male",
      "birthDate": "2003-09-02"
    },
    "request": {
      "method": "PUT",
      "url": "Patient/fa6ecbf0-8dd9-4c03-a8ed-2bd82cb8206f"
    }
  }, {
    "fullUrl": "https://madie.cms.gov/Encounter/5ca62962b8484628b8de1eb6",
    "resource": {
      "resourceType": "Encounter",
      "id": "5ca62962b8484628b8de1eb6",
      "meta": {
        "profile": [ "http://hl7.org/fhir/us/qicore/StructureDefinition/qicore-encounter" ]
      },
      "status": "finished",
      "class": {
        "system": "http://terminology.hl7.org/CodeSystem/v3-ActCode",
        "code": "IMP",
        "display": "inpatient encounter"
      },
      "type": [ {
        "coding": [ {
          "system": "http://snomed.info/sct",
          "code": "183452005"
        } ]
      } ],
      "subject": {
        "reference": "Patient/fa6ecbf0-8dd9-4c03-a8ed-2bd82cb8206f"
      },
      "period": {
        "start": "2025-09-03T15:15:00+00:00",
        "end": "2025-10-01T12:59:00+00:00"
      }
    },
    "request": {
      "method": "PUT",
      "url": "Encounter/5ca62962b8484628b8de1eb6"
    }
  }, {
    "fullUrl": "https://madie.cms.gov/Encounter/5e28afcb9261550000089da6",
    "resource": {
      "resourceType": "Encounter",
      "id": "5e28afcb9261550000089da6",
      "meta": {
        "profile": [ "http://hl7.org/fhir/us/qicore/StructureDefinition/qicore-encounter" ]
      },
      "status": "finished",
      "class": {
        "system": "http://terminology.hl7.org/CodeSystem/v3-ActCode",
        "code": "EMER",
        "display": "emergency"
      },
      "type": [ {
        "coding": [ {
          "system": "http://snomed.info/sct",
          "code": "4525004"
        } ]
      } ],
      "subject": {
        "reference": "Patient/fa6ecbf0-8dd9-4c03-a8ed-2bd82cb8206f"
      },
      "period": {
        "start": "2025-09-02T14:30:00+00:00",
        "end": "2025-09-02T15:00:00+00:00"
      }
    },
    "request": {
      "method": "PUT",
      "url": "Encounter/5e28afcb9261550000089da6"
    }
  }, {
    "fullUrl": "https://madie.cms.gov/Encounter/5e442a92dbe233000050ad2c",
    "resource": {
      "resourceType": "Encounter",
      "id": "5e442a92dbe233000050ad2c",
      "meta": {
        "profile": [ "http://hl7.org/fhir/us/qicore/StructureDefinition/qicore-encounter" ]
      },
      "status": "finished",
      "class": {
        "system": "http://terminology.hl7.org/CodeSystem/v3-ActCode",
        "code": "EMER",
        "display": "emergency"
      },
      "type": [ {
        "coding": [ {
          "system": "http://snomed.info/sct",
          "code": "4525004"
        } ]
      } ],
      "subject": {
        "reference": "Patient/fa6ecbf0-8dd9-4c03-a8ed-2bd82cb8206f"
      },
      "period": {
        "start": "2025-09-02T08:00:00+00:00",
        "end": "2025-09-02T13:00:00+00:00"
      }
    },
    "request": {
      "method": "PUT",
      "url": "Encounter/5e442a92dbe233000050ad2c"
    }
  }, {
    "fullUrl": "https://madie.cms.gov/Encounter/5e71230f102f8600006b5316",
    "resource": {
      "resourceType": "Encounter",
      "id": "5e71230f102f8600006b5316",
      "meta": {
        "profile": [ "http://hl7.org/fhir/us/qicore/StructureDefinition/qicore-encounter" ]
      },
      "status": "finished",
      "class": {
        "system": "http://terminology.hl7.org/CodeSystem/v3-ActCode",
        "code": "OBSENC",
        "display": "observation encounter"
      },
      "type": [ {
        "coding": [ {
          "system": "http://snomed.info/sct",
          "code": "448951000124107"
        } ]
      } ],
      "subject": {
        "reference": "Patient/fa6ecbf0-8dd9-4c03-a8ed-2bd82cb8206f"
      },
      "period": {
        "start": "2025-09-02T15:30:00+00:00",
        "end": "2025-09-03T15:00:00+00:00"
      }
    },
    "request": {
      "method": "PUT",
      "url": "Encounter/5e71230f102f8600006b5316"
    }
  }, {
    "fullUrl": "https://madie.cms.gov/Encounter/5e71232c102f8600006b5327",
    "resource": {
      "resourceType": "Encounter",
      "id": "5e71232c102f8600006b5327",
      "meta": {
        "profile": [ "http://hl7.org/fhir/us/qicore/StructureDefinition/qicore-encounter" ]
      },
      "status": "finished",
      "class": {
        "system": "http://terminology.hl7.org/CodeSystem/v3-ActCode",
        "code": "OBSENC",
        "display": "observation encounter"
      },
      "type": [ {
        "coding": [ {
          "system": "http://snomed.info/sct",
          "code": "448951000124107"
        } ]
      } ],
      "subject": {
        "reference": "Patient/fa6ecbf0-8dd9-4c03-a8ed-2bd82cb8206f"
      },
      "period": {
        "start": "2025-09-02T13:30:00+00:00",
        "end": "2025-09-02T14:00:00+00:00"
      }
    },
    "request": {
      "method": "PUT",
      "url": "Encounter/5e71232c102f8600006b5327"
    }
  }, {
    "fullUrl": "https://madie.cms.gov/Coverage/5fa041691c76ba66d99593ac",
    "resource": {
      "resourceType": "Coverage",
      "id": "5fa041691c76ba66d99593ac",
      "status": "active",
      "beneficiary": {
        "reference": "Patient/fa6ecbf0-8dd9-4c03-a8ed-2bd82cb8206f"
      },
      "period": {
        "start": "2003-09-02T09:00:00+00:00"
      },
      "payor": [ {
        "reference": "Organization/Org-123456"
      } ]
    },
    "request": {
      "method": "PUT",
      "url": "Coverage/5fa041691c76ba66d99593ac"
    }
  }, {
    "fullUrl": "https://madie.cms.gov/MedicationAdministration/5e28af669261550000089d50",
    "resource": {
      "resourceType": "MedicationAdministration",
      "id": "5e28af669261550000089d50",
      "meta": {
        "profile": [ "http://hl7.org/fhir/us/qicore/StructureDefinition/qicore-medicationadministration" ]
      },
      "status": "completed",
      "medicationCodeableConcept": {
        "coding": [ {
          "system": "http://www.nlm.nih.gov/research/umls/rxnorm",
          "code": "861356"
        } ]
      },
      "subject": {
        "reference": "Patient/fa6ecbf0-8dd9-4c03-a8ed-2bd82cb8206f"
      },
      "effectivePeriod": {
        "start": "2025-09-02T13:40:00+00:00",
        "end": "2025-09-02T13:50:00+00:00"
      }
    },
    "request": {
      "method": "PUT",
      "url": "MedicationAdministration/5e28af669261550000089d50"
    }
  }, {
    "fullUrl": "https://madie.cms.gov/Organization/123456",
    "resource": {
      "resourceType": "Organization",
      "id": "Org-123456",
      "meta": {
        "profile": [ "http://hl7.org/fhir/us/qicore/StructureDefinition/qicore-organization" ]
      },
      "identifier": [ {
        "use": "temp",
        "system": "urn:oid:2.16.840.1.113883.4.4",
        "value": "21-3259825"
      } ],
      "active": true,
      "type": [ {
        "coding": [ {
          "system": "http://terminology.hl7.org/CodeSystem/organization-type",
          "code": "pay",
          "display": "Payer"
        } ]
      } ],
      "name": "Blue Cross Blue Shield of Texas",
      "telecom": [ {
        "system": "phone",
        "value": "(+1) 972-766-6900"
      } ],
      "address": [ {
        "use": "billing",
        "type": "postal",
        "line": [ "P.O. Box 660044" ],
        "city": "Dallas",
        "state": "TX",
        "postalCode": "75266-0044",
        "country": "USA"
      } ]
    },
    "request": {
      "method": "PUT",
      "url": "Organization/Org-123456"
    }
  }, {
    "fullUrl": "https://madie.cms.gov/Practitioner/practitioner-123456",
    "resource": {
      "resourceType": "Practitioner",
      "id": "practitioner-123456",
      "identifier": [ {
        "system": "http://hl7.org/fhir/sid/us-npi",
        "value": "123456"
      } ],
      "name": [ {
        "family": "Evil",
        "prefix": [ "Dr" ]
      } ]
    },
    "request": {
      "method": "PUT",
      "url": "Practitioner/practitioner-123456"
    }
  }, {
    "fullUrl": "https://madie.cms.gov/MeasureReport/b9af6d75-b54f-4cd3-bf63-0e181100c64c",
    "resource": {
      "resourceType": "MeasureReport",
      "id": "b9af6d75-b54f-4cd3-bf63-0e181100c64c",
      "meta": {
        "profile": [ "http://hl7.org/fhir/us/cqfmeasures/StructureDefinition/test-case-cqfm" ]
      },
      "contained": [ {
        "resourceType": "Parameters",
        "id": "164ee8dc-dab6-43c7-b4c6-63b21c27bde5-parameters",
        "parameter": [ {
          "name": "subject",
          "valueString": "fa6ecbf0-8dd9-4c03-a8ed-2bd82cb8206f"
        } ]
      } ],
      "extension": [ {
        "url": "http://hl7.org/fhir/us/cqfmeasures/StructureDefinition/cqfm-inputParameters",
        "valueReference": {
          "reference": "#164ee8dc-dab6-43c7-b4c6-63b21c27bde5-parameters"
        }
      }, {
        "url": "http://hl7.org/fhir/us/cqfmeasures/StructureDefinition/cqfm-testCaseDescription",
        "valueMarkdown": "ED then admit to Observation, did not want to stay AWOL; symptoms worsened, back to ED and then observation, then inpt admit; VTE Prophylaxis during first observation cause test to pass. \n"
      } ],
      "modifierExtension": [ {
        "url": "http://hl7.org/fhir/us/cqfmeasures/StructureDefinition/cqfm-isTestCase",
        "valueBoolean": true
      } ],
      "status": "complete",
      "type": "individual",
      "measure": "https://madie.cms.gov/Measure/VenousThromboembolismProphylaxisFHIR",
      "period": {
        "start": "2025-01-01",
        "end": "2025-12-31"
      },
      "group": [ {
        "population": [ {
          "code": {
            "coding": [ {
              "system": "http://terminology.hl7.org/CodeSystem/measure-population",
              "code": "initial-population",
              "display": "Initial Population"
            } ]
          },
          "count": 1
        }, {
          "code": {
            "coding": [ {
              "system": "http://terminology.hl7.org/CodeSystem/measure-population",
              "code": "denominator",
              "display": "Denominator"
            } ]
          },
          "count": 1
        }, {
          "code": {
            "coding": [ {
              "system": "http://terminology.hl7.org/CodeSystem/measure-population",
              "code": "denominator-exclusion",
              "display": "Denominator Exclusion"
            } ]
          },
          "count": 0
        }, {
          "code": {
            "coding": [ {
              "system": "http://terminology.hl7.org/CodeSystem/measure-population",
              "code": "numerator",
              "display": "Numerator"
            } ]
          },
          "count": 1
        } ]
      } ],
      "evaluatedResource": [ {
        "reference": "Patient/fa6ecbf0-8dd9-4c03-a8ed-2bd82cb8206f"
      }, {
        "reference": "Encounter/5ca62962b8484628b8de1eb6"
      }, {
        "reference": "Encounter/5e28afcb9261550000089da6"
      }, {
        "reference": "Encounter/5e442a92dbe233000050ad2c"
      }, {
        "reference": "Encounter/5e71230f102f8600006b5316"
      }, {
        "reference": "Encounter/5e71232c102f8600006b5327"
      }, {
        "reference": "Coverage/5fa041691c76ba66d99593ac"
      }, {
        "reference": "MedicationAdministration/5e28af669261550000089d50"
      }, {
        "reference": "Organization/Org-123456"
      }, {
        "reference": "Practitioner/practitioner-123456"
      } ]
    },
    "request": {
      "method": "PUT",
      "url": "MeasureReport/b9af6d75-b54f-4cd3-bf63-0e181100c64c"
    }
  } ]
}