{"resourceType":"Bundle","id":"tests-d8832769-c838-4f1b-9c1e-fa4ed3a3efb9-bundle","type":"transaction","entry":[{"fullUrl":"https://madie.cms.gov/Patient/d8832769-c838-4f1b-9c1e-fa4ed3a3efb9","resource":{"resourceType":"Patient","id":"d8832769-c838-4f1b-9c1e-fa4ed3a3efb9","meta":{"profile":["http://hl7.org/fhir/us/qicore/StructureDefinition/qicore-patient"]},"extension":[{"url":"http://hl7.org/fhir/us/core/StructureDefinition/us-core-race","extension":[{"url":"ombCategory","valueCoding":{"system":"urn:oid:2.16.840.1.113883.6.238","code":"1002-5","display":"American Indian or Alaska Native","userSelected":true}},{"url":"text","valueString":"American Indian or Alaska Native"}]},{"url":"http://hl7.org/fhir/us/core/StructureDefinition/us-core-ethnicity","extension":[{"url":"ombCategory","valueCoding":{"system":"urn:oid:2.16.840.1.113883.6.238","code":"2135-2","display":"Hispanic or Latino","userSelected":true}},{"url":"text","valueString":"Hispanic or Latino"}]}],"identifier":[{"type":{"coding":[{"system":"http://terminology.hl7.org/CodeSystem/v2-0203","code":"MR"}]},"system":"https://bonnie-fhir.healthit.gov/","value":"661476b015ed5841a5547ebf"}],"name":[{"family":"NUMERStrat3Pass","given":["EDObsBoarded"]}],"gender":"male","birthDate":"2009-01-01"},"request":{"method":"PUT","url":"Patient/d8832769-c838-4f1b-9c1e-fa4ed3a3efb9"}},{"fullUrl":"https://madie.cms.gov/Encounter/9b08ff5c-2634-4294-9dd1-cf905713378a","resource":{"resourceType":"Encounter","id":"9b08ff5c-2634-4294-9dd1-cf905713378a","meta":{"profile":["http://hl7.org/fhir/us/qicore/StructureDefinition/qicore-encounter"]},"status":"finished","class":{"system":"http://terminology.hl7.org/CodeSystem/v3-ActCode","code":"EMER","display":"emergency department"},"type":[{"coding":[{"system":"http://snomed.info/sct","version":"2023-09","code":"4525004","display":"Emergency department patient visit (procedure)","userSelected":true}]}],"subject":{"reference":"Patient/d8832769-c838-4f1b-9c1e-fa4ed3a3efb9"},"period":{"start":"2026-01-01T00:00:00.000+00:00","end":"2026-01-01T06:00:00.000+00:00"},"diagnosis":[{"condition":{"reference":"Condition/4d9faae9-698d-4d8f-ab72-581dc1196b87"},"use":{"coding":[{"system":"http://terminology.hl7.org/CodeSystem/diagnosis-role","code":"billing"}]},"rank":1}],"location":[{"location":{"reference":"Location/0fafeffe-fdc0-4525-ba83-4562b1752c9f"},"period":{"start":"2026-01-01T00:00:00.000+00:00","end":"2026-01-01T06:01:00.000+00:00"}}]},"request":{"method":"PUT","url":"Encounter/9b08ff5c-2634-4294-9dd1-cf905713378a"}},{"fullUrl":"https://madie.cms.gov/Encounter/82308d4c-5963-4424-af48-2e71041f7123","resource":{"resourceType":"Encounter","id":"82308d4c-5963-4424-af48-2e71041f7123","meta":{"profile":["http://hl7.org/fhir/us/qicore/StructureDefinition/qicore-encounter"]},"status":"finished","class":{"system":"http://terminology.hl7.org/CodeSystem/v3-ActCode","code":"IMP","display":"inpatient encounter"},"type":[{"coding":[{"system":"http://snomed.info/sct","version":"2023-09","code":"183452005","display":"Emergency hospital admission (procedure)","userSelected":true}]}],"subject":{"reference":"Patient/d8832769-c838-4f1b-9c1e-fa4ed3a3efb9"},"period":{"start":"2026-01-01T05:00:00.000+00:00","end":"2026-01-03T06:15:00.000+00:00"}},"request":{"method":"PUT","url":"Encounter/82308d4c-5963-4424-af48-2e71041f7123"}},{"fullUrl":"https://madie.cms.gov/ServiceRequest/d69e5802-561e-4caf-a50a-61314dc37b27","resource":{"resourceType":"ServiceRequest","id":"d69e5802-561e-4caf-a50a-61314dc37b27","meta":{"profile":["http://hl7.org/fhir/us/qicore/StructureDefinition/qicore-servicerequest"]},"status":"active","intent":"order","code":{"coding":[{"system":"http://snomed.info/sct","code":"5751000175101","display":"Patient bed assigned (finding)","userSelected":true}]},"subject":{"reference":"Patient/d8832769-c838-4f1b-9c1e-fa4ed3a3efb9"},"authoredOn":"2026-01-01T02:00:00.000+00:00"},"request":{"method":"PUT","url":"ServiceRequest/d69e5802-561e-4caf-a50a-61314dc37b27"}},{"fullUrl":"https://madie.cms.gov/Location/0fafeffe-fdc0-4525-ba83-4562b1752c9f","resource":{"resourceType":"Location","id":"0fafeffe-fdc0-4525-ba83-4562b1752c9f","meta":{"profile":["http://hl7.org/fhir/us/qicore/StructureDefinition/qicore-location"]},"identifier":[{"use":"usual","system":"http://exampleoflocation.com","value":"B1-S.F2"}],"name":"Medical Surgical East, first floor","type":[{"coding":[{"system":"https://www.cdc.gov/nhsn/cdaportal/terminology/codesystem/hsloc.html","version":"2022","code":"1108-0","display":"Emergency Department","userSelected":true}]}]},"request":{"method":"PUT","url":"Location/0fafeffe-fdc0-4525-ba83-4562b1752c9f"}},{"fullUrl":"https://madie.cms.gov/Coverage/3b34bb46-8f29-4a3e-9b01-7ab9334b0218","resource":{"resourceType":"Coverage","id":"3b34bb46-8f29-4a3e-9b01-7ab9334b0218","meta":{"profile":["http://hl7.org/fhir/us/qicore/StructureDefinition/qicore-coverage"]},"status":"active","beneficiary":{"reference":"Patient/d8832769-c838-4f1b-9c1e-fa4ed3a3efb9"},"payor":[{"reference":"Organization/f4907415-83c5-4eae-ab0b-cb63a840880d"}]},"request":{"method":"PUT","url":"Coverage/3b34bb46-8f29-4a3e-9b01-7ab9334b0218"}},{"fullUrl":"https://madie.cms.gov/Condition/4d9faae9-698d-4d8f-ab72-581dc1196b87","resource":{"resourceType":"Condition","id":"4d9faae9-698d-4d8f-ab72-581dc1196b87","meta":{"profile":["http://hl7.org/fhir/us/qicore/StructureDefinition/qicore-condition"]},"category":[{"coding":[{"system":"http://terminology.hl7.org/CodeSystem/condition-category","code":"encounter-diagnosis","display":"Encounter Diagnosis"}]}],"code":{"coding":[{"system":"http://snomed.info/sct","version":"2023-09","code":"10349009","display":"Multi-infarct dementia with delirium (disorder)","userSelected":true}]},"subject":{"reference":"Patient/d8832769-c838-4f1b-9c1e-fa4ed3a3efb9"},"recordedDate":"2026-01-01T08:00:00.000+00:00"},"request":{"method":"PUT","url":"Condition/4d9faae9-698d-4d8f-ab72-581dc1196b87"}},{"fullUrl":"https://madie.cms.gov/Encounter/3663690c-013f-47b4-b463-ce00d74dc8f9","resource":{"resourceType":"Encounter","id":"3663690c-013f-47b4-b463-ce00d74dc8f9","meta":{"profile":["http://hl7.org/fhir/us/qicore/StructureDefinition/qicore-encounter"]},"status":"finished","class":{"system":"http://terminology.hl7.org/CodeSystem/v3-ActCode","code":"EMER","display":"emergency"},"type":[{"coding":[{"system":"http://www.ama-assn.org/go/cpt","version":"2024","code":"99221","display":"Initial hospital inpatient or observation care, per day, for the evaluation and management of a patient, which requires a medically appropriate history and/or examination and straightforward or low level medical decision making. When using total time on the date of the encounter for code selection, 40 minutes must be met or exceeded.","userSelected":true}]}],"subject":{"reference":"Patient/d8832769-c838-4f1b-9c1e-fa4ed3a3efb9"},"period":{"start":"2026-01-01T00:01:00.000+00:00","end":"2026-01-01T05:59:00.000+00:00"}},"request":{"method":"PUT","url":"Encounter/3663690c-013f-47b4-b463-ce00d74dc8f9"}},{"fullUrl":"https://madie.cms.gov/Organization/2fde64e5-d911-4e41-8776-db897ab0a8ff","resource":{"resourceType":"Organization","id":"f4907415-83c5-4eae-ab0b-cb63a840880d","meta":{"profile":["http://hl7.org/fhir/us/qicore/StructureDefinition/qicore-organization"]},"identifier":[{"use":"temp","system":"urn:oid:2.16.840.1.113883.4.4","value":"21-3259825"}],"active":true,"type":[{"coding":[{"system":"http://terminology.hl7.org/CodeSystem/organization-type","code":"pay","display":"Payer"}]}],"name":"Blue Cross Blue Shield of Texas","telecom":[{"system":"phone","value":"(+1) 972-766-6900"}],"address":[{"use":"billing","type":"postal","line":["P.O. Box 660044"],"city":"Dallas","state":"TX","postalCode":"75266-0044","country":"USA"}]},"request":{"method":"PUT","url":"Organization/f4907415-83c5-4eae-ab0b-cb63a840880d"}},{"fullUrl":"https://madie.cms.gov/Practitioner/80b71528-4f60-448e-a211-e4b9c47d5a98","resource":{"resourceType":"Practitioner","id":"80b71528-4f60-448e-a211-e4b9c47d5a98","meta":{"profile":["http://hl7.org/fhir/us/qicore/StructureDefinition/qicore-practitioner"]},"identifier":[{"system":"http://hl7.org/fhir/sid/us-npi","value":"123456"}],"name":[{"family":"Evil","prefix":["Dr"]}]},"request":{"method":"PUT","url":"Practitioner/80b71528-4f60-448e-a211-e4b9c47d5a98"}},{"fullUrl":"https://madie.cms.gov/MeasureReport/dae1f0e6-c05f-4996-93fa-4cff7e856bd6","resource":{"resourceType":"MeasureReport","id":"dae1f0e6-c05f-4996-93fa-4cff7e856bd6","meta":{"profile":["http://hl7.org/fhir/us/cqfmeasures/StructureDefinition/test-case-cqfm"]},"contained":[{"resourceType":"Parameters","id":"416991a1-85c1-4621-9588-d019d2264b58-parameters","parameter":[{"name":"subject","valueString":"d8832769-c838-4f1b-9c1e-fa4ed3a3efb9"}]}],"extension":[{"url":"http://hl7.org/fhir/us/cqfmeasures/StructureDefinition/cqfm-inputParameters","valueReference":{"reference":"#416991a1-85c1-4621-9588-d019d2264b58-parameters"}},{"url":"http://hl7.org/fhir/us/cqfmeasures/StructureDefinition/cqfm-testCaseDescription","valueMarkdown":"Child, ED observation during ED enc where patient was boarded 6 hrs 1 min; Enc 8 hrs, enc departure 8 hrs 1 min."}],"modifierExtension":[{"url":"http://hl7.org/fhir/us/cqfmeasures/StructureDefinition/cqfm-isTestCase","valueBoolean":true}],"status":"complete","type":"individual","measure":"https://madie.cms.gov/Measure/CMS1244ECCQHOQRFHIR","period":{"start":"2026-01-01","end":"2026-12-31"},"group":[{"population":[{"code":{"coding":[{"system":"http://terminology.hl7.org/CodeSystem/measure-population","code":"initial-population","display":"Initial Population"}]},"count":1},{"code":{"coding":[{"system":"http://terminology.hl7.org/CodeSystem/measure-population","code":"denominator","display":"Denominator"}]},"count":1},{"code":{"coding":[{"system":"http://terminology.hl7.org/CodeSystem/measure-population","code":"numerator","display":"Numerator"}]},"count":0}]}]},"request":{"method":"PUT","url":"MeasureReport/dae1f0e6-c05f-4996-93fa-4cff7e856bd6"}}]}