{"resourceType":"Bundle","id":"tests-37526b3c-564e-4e1f-910a-3a41f06d9c24-bundle","type":"transaction","entry":[{"fullUrl":"https://madie.cms.gov/Patient/37526b3c-564e-4e1f-910a-3a41f06d9c24","resource":{"resourceType":"Patient","id":"37526b3c-564e-4e1f-910a-3a41f06d9c24","meta":{"profile":["http://hl7.org/fhir/us/qicore/StructureDefinition/qicore-patient"]},"text":{"status":"generated","div":"<div xmlns=\"http://www.w3.org/1999/xhtml\"><div class=\"hapiHeaderText\">LT24beforeAndGT2after_relevantDT <b>SBPPASS </b></div><table class=\"hapiPropertyTable\"><tbody><tr><td>Identifier</td><td>ff71e6df6fc1b78e69460d357884fa81714d2acf91ffda248ad3470e982fcab8</td></tr><tr><td>Date of birth</td><td><span>15 June 1956</span></td></tr></tbody></table></div>"},"extension":[{"url":"http://hl7.org/fhir/us/core/StructureDefinition/us-core-race","extension":[{"url":"ombCategory","valueCoding":{"system":"urn:oid:2.16.840.1.113883.6.238","code":"1002-5","display":"American Indian or Alaska Native","userSelected":true}},{"url":"text","valueString":"American Indian or Alaska Native"}]},{"url":"http://hl7.org/fhir/us/core/StructureDefinition/us-core-ethnicity","extension":[{"url":"ombCategory","valueCoding":{"system":"urn:oid:2.16.840.1.113883.6.238","code":"2186-5","display":"Not Hispanic or Latino","userSelected":true}},{"url":"text","valueString":"Not Hispanic or Latino"}]}],"identifier":[{"type":{"coding":[{"system":"http://terminology.hl7.org/CodeSystem/v2-0203","code":"MR"}]},"system":"https://bonnie-fhir.healthit.gov/","value":"63ec0968ccb3770120fe9e26"}],"active":true,"name":[{"use":"usual","family":"SystolicBPPass","given":["InED15AndHalfHrsBeforeInpatientAdmit"]}],"gender":"male","birthDate":"1956-06-15"},"request":{"method":"PUT","url":"Patient/37526b3c-564e-4e1f-910a-3a41f06d9c24"}},{"fullUrl":"https://madie.cms.gov/Encounter/5e06513f9350f90000fe2684X","resource":{"resourceType":"Encounter","id":"b5c70ebd-03e1-43d2-bb8b-a02b58023349","meta":{"profile":["http://hl7.org/fhir/us/qicore/StructureDefinition/qicore-encounter"]},"status":"finished","class":{"system":"http://terminology.hl7.org/CodeSystem/v3-ActCode","code":"EMER","display":"emergency","userSelected":true},"type":[{"coding":[{"system":"http://snomed.info/sct","code":"4525004","display":"Emergency department patient visit (procedure)"}]}],"subject":{"reference":"Patient/37526b3c-564e-4e1f-910a-3a41f06d9c24"},"period":{"start":"2025-07-01T00:01:00.000+00:00","end":"2025-07-01T15:00:00.000+00:00"},"length":{"value":1,"unit":"days"}},"request":{"method":"PUT","url":"Encounter/b5c70ebd-03e1-43d2-bb8b-a02b58023349"}},{"fullUrl":"https://madie.cms.gov/Encounter/5e06513f9350f90000fe2684","resource":{"resourceType":"Encounter","id":"ec6759d8-4c99-413d-8b22-addfece0bda6","meta":{"profile":["http://hl7.org/fhir/us/qicore/StructureDefinition/qicore-encounter"]},"status":"finished","class":{"system":"http://terminology.hl7.org/CodeSystem/v3-ActCode","code":"IMP","display":"inpatient encounter","userSelected":true},"type":[{"coding":[{"system":"http://snomed.info/sct","code":"183452005"}]}],"subject":{"reference":"Patient/37526b3c-564e-4e1f-910a-3a41f06d9c24"},"period":{"start":"2025-07-01T15:00:00.000+00:00","end":"2025-07-05T08:15:00.000+00:00"},"length":{"value":1,"unit":"days"}},"request":{"method":"PUT","url":"Encounter/ec6759d8-4c99-413d-8b22-addfece0bda6"}},{"fullUrl":"https://madie.cms.gov/Coverage/5f9969a2b977ef0000c02e9a","resource":{"resourceType":"Coverage","id":"bc9fcbd4-0060-4939-85ad-b6fa50350911","meta":{"profile":["http://hl7.org/fhir/us/qicore/StructureDefinition/qicore-coverage"]},"status":"active","type":{"coding":[{"system":"https://nahdo.org/sopt","version":"1.0.1","code":"1","display":"Medicare payer","userSelected":true}]},"beneficiary":{"reference":"Patient/37526b3c-564e-4e1f-910a-3a41f06d9c24"},"payor":[{"reference":"Organization/26111c91-b0e2-476c-a20b-e3f39799f8f5"}]},"request":{"method":"PUT","url":"Coverage/bc9fcbd4-0060-4939-85ad-b6fa50350911"}},{"fullUrl":"https://madie.cms.gov/Observation/5b7c565ab84846299c81a5c8","resource":{"resourceType":"Observation","id":"48e7d7b0-c76d-4e7e-b1c3-e333e13cf9b4","meta":{"profile":["http://hl7.org/fhir/StructureDefinition/bp"]},"status":"final","category":[{"coding":[{"system":"http://terminology.hl7.org/CodeSystem/observation-category","code":"vital-signs","display":"Vital Signs"}],"text":"Vital Signs"}],"code":{"coding":[{"system":"http://loinc.org","code":"85354-9","display":"Blood pressure panel"}]},"subject":{"reference":"Patient/37526b3c-564e-4e1f-910a-3a41f06d9c24"},"effectiveDateTime":"2025-07-01T00:30:00.000Z","component":[{"code":{"coding":[{"system":"http://loinc.org","code":"8480-6","display":"Systolic blood pressure"}]},"valueQuantity":{"value":131,"unit":"mmHg","system":"http://unitsofmeasure.org","code":"mm[Hg]"}},{"code":{"coding":[{"system":"http://loinc.org","code":"8462-4","display":"Diastolic blood pressure"}]},"valueQuantity":{"value":80,"unit":"mmHg","system":"http://unitsofmeasure.org","code":"mm[Hg]"}}]},"request":{"method":"PUT","url":"Observation/48e7d7b0-c76d-4e7e-b1c3-e333e13cf9b4"}},{"fullUrl":"https://madie.cms.gov/Observation/5b7c565ab84846299c81a5cb","resource":{"resourceType":"Observation","id":"acb4a71f-5e05-46a3-b09c-b6a7da015bb0","meta":{"profile":["http://hl7.org/fhir/us/qicore/StructureDefinition/qicore-observation"]},"status":"amended","category":[{"coding":[{"system":"http://terminology.hl7.org/CodeSystem/observation-category","code":"laboratory","display":"laboratory","userSelected":true}]}],"code":{"coding":[{"system":"http://loinc.org","code":"8480-6"}]},"subject":{"reference":"Patient/37526b3c-564e-4e1f-910a-3a41f06d9c24"},"effectiveDateTime":"2025-07-01T15:00:00.000Z","valueQuantity":{"value":115.0,"unit":"mm[Hg]","system":"http://unitsofmeasure.org","code":"mm[Hg]"}},"request":{"method":"PUT","url":"Observation/acb4a71f-5e05-46a3-b09c-b6a7da015bb0"}},{"fullUrl":"https://madie.cms.gov/Organization/123456","resource":{"resourceType":"Organization","id":"26111c91-b0e2-476c-a20b-e3f39799f8f5","meta":{"profile":["http://hl7.org/fhir/us/qicore/StructureDefinition/qicore-organization"]},"identifier":[{"use":"temp","system":"urn:oid:2.16.840.1.113883.4.4","value":"21-3259825"}],"active":true,"type":[{"coding":[{"system":"http://terminology.hl7.org/CodeSystem/organization-type","code":"pay","display":"Payer"}]}],"name":"Blue Cross Blue Shield of Texas","telecom":[{"system":"phone","value":"(+1) 972-766-6900"}],"address":[{"use":"billing","type":"postal","line":["P.O. Box 660044"],"city":"Dallas","state":"TX","postalCode":"75266-0044","country":"USA"}]},"request":{"method":"PUT","url":"Organization/26111c91-b0e2-476c-a20b-e3f39799f8f5"}},{"fullUrl":"https://madie.cms.gov/Practitioner/practitioner-123456","resource":{"resourceType":"Practitioner","id":"66d5b45e-df23-463c-b1ff-985f10588b85","meta":{"profile":["http://hl7.org/fhir/us/qicore/StructureDefinition/qicore-practitioner"]},"identifier":[{"system":"http://hl7.org/fhir/sid/us-npi","value":"123456"}],"name":[{"family":"Evil","prefix":["Dr"]}]},"request":{"method":"PUT","url":"Practitioner/66d5b45e-df23-463c-b1ff-985f10588b85"}},{"fullUrl":"https://madie.cms.gov/MeasureReport/d94d229e-1812-413d-81a7-378c45080b88","resource":{"resourceType":"MeasureReport","id":"d94d229e-1812-413d-81a7-378c45080b88","meta":{"profile":["http://hl7.org/fhir/us/cqfmeasures/StructureDefinition/test-case-cqfm"]},"contained":[{"resourceType":"Parameters","id":"16a8c779-1467-4c41-881b-e1224793935f-parameters","parameter":[{"name":"subject","valueString":"37526b3c-564e-4e1f-910a-3a41f06d9c24"}]}],"extension":[{"url":"http://hl7.org/fhir/us/cqfmeasures/StructureDefinition/cqfm-inputParameters","valueReference":{"reference":"#16a8c779-1467-4c41-881b-e1224793935f-parameters"}},{"url":"http://hl7.org/fhir/us/cqfmeasures/StructureDefinition/cqfm-testCaseDescription","valueMarkdown":"ED Enc first day of MP (7/1) has Medicare, BP evaluated in ED 30 mins after ED start, 15.5 hrs prior to inpatient admit and at inpatient admit 15:00, only the BP taken in ED counted"}],"modifierExtension":[{"url":"http://hl7.org/fhir/us/cqfmeasures/StructureDefinition/cqfm-isTestCase","valueBoolean":true}],"status":"complete","type":"individual","measure":"https://madie.cms.gov/Measure/HybridHospitalWideMortalityFHIR","period":{"start":"2025-01-01","end":"2025-12-31"},"group":[{"population":[{"code":{"coding":[{"system":"http://terminology.hl7.org/CodeSystem/measure-population","code":"initial-population","display":"Initial Population"}]},"count":1}]}]},"request":{"method":"PUT","url":"MeasureReport/d94d229e-1812-413d-81a7-378c45080b88"}}]}