{"resourceType":"Bundle","id":"tests-321abfa0-2c0e-4885-8b5b-20208512e605-bundle","type":"transaction","entry":[{"fullUrl":"https://madie.cms.gov/Patient/321abfa0-2c0e-4885-8b5b-20208512e605","resource":{"resourceType":"Patient","id":"321abfa0-2c0e-4885-8b5b-20208512e605","meta":{"profile":["http://hl7.org/fhir/us/qicore/StructureDefinition/qicore-patient"]},"extension":[{"url":"http://hl7.org/fhir/us/core/StructureDefinition/us-core-race","extension":[{"url":"ombCategory","valueCoding":{"system":"urn:oid:2.16.840.1.113883.6.238","code":"2028-9","display":"Asian"}},{"url":"text","valueString":"Asian"}]},{"url":"http://hl7.org/fhir/us/core/StructureDefinition/us-core-ethnicity","extension":[{"url":"ombCategory","valueCoding":{"system":"urn:oid:2.16.840.1.113883.6.238","code":"2135-2","display":"Hispanic or Latino"}},{"url":"text","valueString":"Hispanic or Latino"}]}],"identifier":[{"system":"http://hospital.smarthealthit.org","value":"999999995"}],"name":[{"family":"Bertha","given":["Betty"]}],"gender":"female","birthDate":"2001-12-31"},"request":{"method":"PUT","url":"Patient/321abfa0-2c0e-4885-8b5b-20208512e605"}},{"fullUrl":"https://madie.cms.gov/Encounter/Encounter-11","resource":{"resourceType":"Encounter","id":"Encounter-11","meta":{"profile":["http://hl7.org/fhir/us/qicore/StructureDefinition/qicore-encounter"]},"status":"finished","class":{"system":"http://terminology.hl7.org/CodeSystem/v3-ActCode","code":"AMB","display":"ambulatory"},"type":[{"coding":[{"system":"http://snomed.info/sct","code":"185317003","display":"Telephone encounter (procedure)"}]}],"subject":{"reference":"Patient/321abfa0-2c0e-4885-8b5b-20208512e605"},"period":{"start":"2025-01-01T01:00:00.000Z","end":"2025-01-01T01:15:00.000Z"}},"request":{"method":"PUT","url":"Encounter/Encounter-11"}},{"fullUrl":"https://madie.cms.gov/Observation/Observation-15","resource":{"resourceType":"Observation","id":"Observation-15","meta":{"profile":["http://hl7.org/fhir/us/qicore/StructureDefinition/qicore-observation"]},"status":"final","category":[{"coding":[{"system":"http://terminology.hl7.org/CodeSystem/observation-category","code":"laboratory","display":"laboratory"}],"text":"laboratory"}],"code":{"coding":[{"system":"http://loinc.org","code":"10524-7","display":"Microscopic observation [Identifier] in Cervix by Cyto stain"}]},"subject":{"reference":"Patient/321abfa0-2c0e-4885-8b5b-20208512e605"},"effectivePeriod":{"start":"2023-01-01T00:00:00.000Z","end":"2023-01-01T01:00:00.000Z"},"valueInteger":1},"request":{"method":"PUT","url":"Observation/Observation-15"}},{"fullUrl":"https://madie.cms.gov/MeasureReport/8d251cf1-17e0-41ab-a397-e614aed8d072","resource":{"resourceType":"MeasureReport","id":"8d251cf1-17e0-41ab-a397-e614aed8d072","meta":{"profile":["http://hl7.org/fhir/us/cqfmeasures/StructureDefinition/test-case-cqfm"]},"contained":[{"resourceType":"Parameters","id":"11c4e656-cba7-4d0f-9dc1-30de4550d002-parameters","parameter":[{"name":"subject","valueString":"321abfa0-2c0e-4885-8b5b-20208512e605"}]}],"extension":[{"url":"http://hl7.org/fhir/us/cqfmeasures/StructureDefinition/cqfm-inputParameters","valueReference":{"reference":"#11c4e656-cba7-4d0f-9dc1-30de4550d002-parameters"}},{"url":"http://hl7.org/fhir/us/cqfmeasures/StructureDefinition/cqfm-testCaseDescription","valueMarkdown":"Female 24 years old with Cervical Cytology performed two years prior MP"}],"modifierExtension":[{"url":"http://hl7.org/fhir/us/cqfmeasures/StructureDefinition/cqfm-isTestCase","valueBoolean":true}],"status":"complete","type":"individual","measure":"https://madie.cms.gov/Measure/CervicalCancerScreeningFHIR","period":{"start":"2025-01-01","end":"2025-12-31"},"group":[{"population":[{"code":{"coding":[{"system":"http://terminology.hl7.org/CodeSystem/measure-population","code":"initial-population","display":"Initial Population"}]},"count":1},{"code":{"coding":[{"system":"http://terminology.hl7.org/CodeSystem/measure-population","code":"denominator","display":"Denominator"}]},"count":1},{"code":{"coding":[{"system":"http://terminology.hl7.org/CodeSystem/measure-population","code":"denominator-exclusion","display":"Denominator Exclusion"}]},"count":0},{"code":{"coding":[{"system":"http://terminology.hl7.org/CodeSystem/measure-population","code":"numerator","display":"Numerator"}]},"count":1}]}],"evaluatedResource":[{"reference":"Patient/321abfa0-2c0e-4885-8b5b-20208512e605"},{"reference":"Encounter/Encounter-11"},{"reference":"Observation/Observation-15"}]},"request":{"method":"PUT","url":"MeasureReport/8d251cf1-17e0-41ab-a397-e614aed8d072"}}]}