{"resourceType":"Bundle","id":"tests-dc5b8054-7432-4905-aaef-3acd6f3f75b9-bundle","type":"transaction","entry":[{"fullUrl":"https://madie.cms.gov/Patient/dc5b8054-7432-4905-aaef-3acd6f3f75b9","resource":{"resourceType":"Patient","id":"dc5b8054-7432-4905-aaef-3acd6f3f75b9","meta":{"profile":["http://hl7.org/fhir/us/qicore/StructureDefinition/qicore-patient"]},"extension":[{"url":"http://hl7.org/fhir/us/core/StructureDefinition/us-core-race","extension":[{"url":"ombCategory","valueCoding":{"system":"urn:oid:2.16.840.1.113883.6.238","code":"2028-9","display":"Asian"}},{"url":"text","valueString":"Asian"}]},{"url":"http://hl7.org/fhir/us/core/StructureDefinition/us-core-ethnicity","extension":[{"url":"ombCategory","valueCoding":{"system":"urn:oid:2.16.840.1.113883.6.238","code":"2135-2","display":"Hispanic or Latino"}},{"url":"text","valueString":"Hispanic or Latino"}]}],"identifier":[{"system":"http://hospital.smarthealthit.org","value":"999999995"}],"name":[{"family":"Bertha","given":["Betty"]}],"gender":"female","birthDate":"2001-12-31"},"request":{"method":"PUT","url":"Patient/dc5b8054-7432-4905-aaef-3acd6f3f75b9"}},{"fullUrl":"https://madie.cms.gov/Encounter/Encounter-12","resource":{"resourceType":"Encounter","id":"Encounter-12","meta":{"profile":["http://hl7.org/fhir/us/qicore/StructureDefinition/qicore-encounter"]},"status":"finished","class":{"system":"http://terminology.hl7.org/CodeSystem/v3-ActCode","code":"AMB","display":"ambulatory"},"type":[{"coding":[{"system":"http://snomed.info/sct","code":"185317003","display":"Telephone encounter (procedure)"}]}],"subject":{"reference":"Patient/dc5b8054-7432-4905-aaef-3acd6f3f75b9"},"period":{"start":"2025-01-01T01:00:00.000Z","end":"2025-01-01T01:15:00.000Z"}},"request":{"method":"PUT","url":"Encounter/Encounter-12"}},{"fullUrl":"https://madie.cms.gov/Observation/Observation-16","resource":{"resourceType":"Observation","id":"Observation-16","meta":{"profile":["http://hl7.org/fhir/us/qicore/StructureDefinition/qicore-observation"]},"status":"final","category":[{"coding":[{"system":"http://terminology.hl7.org/CodeSystem/observation-category","code":"laboratory","display":"laboratory"}],"text":"laboratory"}],"code":{"coding":[{"system":"http://loinc.org","code":"10524-7","display":"Microscopic observation [Identifier] in Cervix by Cyto stain"}]},"subject":{"reference":"Patient/dc5b8054-7432-4905-aaef-3acd6f3f75b9"},"effectivePeriod":{"start":"2026-01-01T00:00:00.000Z","end":"2026-01-01T01:00:00.000Z"},"valueInteger":1},"request":{"method":"PUT","url":"Observation/Observation-16"}},{"fullUrl":"https://madie.cms.gov/MeasureReport/9d611932-b2a5-45c3-8fea-843eeeba692c","resource":{"resourceType":"MeasureReport","id":"9d611932-b2a5-45c3-8fea-843eeeba692c","meta":{"profile":["http://hl7.org/fhir/us/cqfmeasures/StructureDefinition/test-case-cqfm"]},"contained":[{"resourceType":"Parameters","id":"ed587b65-3766-4f69-9ea2-2dbcbf0f917b-parameters","parameter":[{"name":"subject","valueString":"dc5b8054-7432-4905-aaef-3acd6f3f75b9"}]}],"extension":[{"url":"http://hl7.org/fhir/us/cqfmeasures/StructureDefinition/cqfm-inputParameters","valueReference":{"reference":"#ed587b65-3766-4f69-9ea2-2dbcbf0f917b-parameters"}},{"url":"http://hl7.org/fhir/us/cqfmeasures/StructureDefinition/cqfm-testCaseDescription","valueMarkdown":"Female 24 years old with Cervical Cytology performed after MP"}],"modifierExtension":[{"url":"http://hl7.org/fhir/us/cqfmeasures/StructureDefinition/cqfm-isTestCase","valueBoolean":true}],"status":"complete","type":"individual","measure":"https://madie.cms.gov/Measure/CervicalCancerScreeningFHIR","period":{"start":"2025-01-01","end":"2025-12-31"},"group":[{"population":[{"code":{"coding":[{"system":"http://terminology.hl7.org/CodeSystem/measure-population","code":"initial-population","display":"Initial Population"}]},"count":1},{"code":{"coding":[{"system":"http://terminology.hl7.org/CodeSystem/measure-population","code":"denominator","display":"Denominator"}]},"count":1},{"code":{"coding":[{"system":"http://terminology.hl7.org/CodeSystem/measure-population","code":"denominator-exclusion","display":"Denominator Exclusion"}]},"count":0},{"code":{"coding":[{"system":"http://terminology.hl7.org/CodeSystem/measure-population","code":"numerator","display":"Numerator"}]},"count":0}]}],"evaluatedResource":[{"reference":"Patient/dc5b8054-7432-4905-aaef-3acd6f3f75b9"},{"reference":"Encounter/Encounter-12"},{"reference":"Observation/Observation-16"}]},"request":{"method":"PUT","url":"MeasureReport/9d611932-b2a5-45c3-8fea-843eeeba692c"}}]}