{"resourceType":"Bundle","id":"tests-41ab4767-1013-4d6f-a84a-06d425f2d8d1-bundle","type":"transaction","entry":[{"fullUrl":"https://madie.cms.gov/Patient/41ab4767-1013-4d6f-a84a-06d425f2d8d1","resource":{"resourceType":"Patient","id":"41ab4767-1013-4d6f-a84a-06d425f2d8d1","meta":{"profile":["http://hl7.org/fhir/us/qicore/StructureDefinition/qicore-patient"]},"text":{"status":"generated","div":"<div xmlns=\"http://www.w3.org/1999/xhtml\"><div class=\"hapiHeaderText\">AgeOver17OVEnc <b>IPPFAIL </b></div><table class=\"hapiPropertyTable\"><tbody><tr><td>Identifier</td><td>a161be7fbcc0d9ed110cb2dba89f8c2a</td></tr><tr><td>Date of birth</td><td><span>31 December 1994</span></td></tr></tbody></table></div>"},"extension":[{"url":"http://hl7.org/fhir/us/core/StructureDefinition/us-core-race","extension":[{"url":"ombCategory","valueCoding":{"system":"urn:oid:2.16.840.1.113883.6.238","code":"1002-5","display":"American Indian or Alaska Native","userSelected":true}},{"url":"text","valueString":"American Indian or Alaska Native"}]},{"url":"http://hl7.org/fhir/us/core/StructureDefinition/us-core-ethnicity","extension":[{"url":"ombCategory","valueCoding":{"system":"urn:oid:2.16.840.1.113883.6.238","code":"2186-5","display":"Not Hispanic or Latino","userSelected":true}},{"url":"text","valueString":"Not Hispanic or Latino"}]}],"identifier":[{"type":{"coding":[{"system":"http://terminology.hl7.org/CodeSystem/v2-0203","code":"MR"}]},"system":"https://bonnie-fhir.healthit.gov/","value":"6109650598086b538055a0e4"}],"active":true,"name":[{"use":"usual","family":"IPFail","given":["AgeOver17OVEnc"]}],"gender":"male","birthDate":"2007-12-29"},"request":{"method":"PUT","url":"Patient/41ab4767-1013-4d6f-a84a-06d425f2d8d1"}},{"fullUrl":"https://madie.cms.gov/Encounter/5c98fd1ab848464ed33e9e75","resource":{"resourceType":"Encounter","id":"5c98fd1ab848464ed33e9e75","status":"finished","class":{"system":"http://terminology.hl7.org/CodeSystem/v3-ActCode","code":"AMB","display":"ambulatory","userSelected":true},"type":[{"coding":[{"system":"http://snomed.info/sct","code":"185463005"}]}],"subject":{"reference":"Patient/41ab4767-1013-4d6f-a84a-06d425f2d8d1"},"period":{"start":"2026-01-01T08:00:00.000+00:00","end":"2026-01-01T08:15:00.000+00:00"},"reasonCode":[{"coding":[{"system":"http://hl7.org/fhir/sid/icd-10-cm","version":"2021","code":"F33.3","display":"Major depressive disorder, recurrent, severe with psychotic symptoms","userSelected":true}]}],"diagnosis":[{"condition":{"reference":"Condition/major-depressive-disorder-active-c3a1"},"use":{"coding":[{"system":"http://snomed.info/sct","version":"2022-09","code":"10811161000119107","display":"Major depressive disorder in mother complicating pregnancy (disorder)","userSelected":true}]}}]},"request":{"method":"PUT","url":"Encounter/5c98fd1ab848464ed33e9e75"}},{"fullUrl":"https://madie.cms.gov/Condition/major-depressive-disorder-active-c3a1","resource":{"resourceType":"Condition","id":"major-depressive-disorder-active-c3a1","category":[{"coding":[{"system":"http://terminology.hl7.org/CodeSystem/condition-category","code":"encounter-diagnosis","display":"Encounter Diagnosis"}]}],"code":{"coding":[{"system":"http://snomed.info/sct","version":"2022-09","code":"10811121000119102","display":"Major depressive disorder in mother complicating childbirth (disorder)","userSelected":true}]},"subject":{"reference":"Patient/41ab4767-1013-4d6f-a84a-06d425f2d8d1"},"recordedDate":"2026-01-01T08:03:00.000+00:00"},"request":{"method":"PUT","url":"Condition/major-depressive-disorder-active-c3a1"}},{"fullUrl":"https://madie.cms.gov/Coverage/payer-6185","resource":{"resourceType":"Coverage","id":"payer-6185","status":"active","type":{"coding":[{"system":"http://www.nlm.nih.gov/research/umls/sop","code":"21","userSelected":true}]},"beneficiary":{"reference":"Patient/41ab4767-1013-4d6f-a84a-06d425f2d8d1"},"period":{"start":"2026-01-01T07:00:00.000+00:00","end":"2026-03-29T08:15:00.000+00:00"},"payor":[{"reference":"Organization/123456"}]},"request":{"method":"PUT","url":"Coverage/payer-6185"}},{"fullUrl":"https://madie.cms.gov/Organization/123456","resource":{"resourceType":"Organization","id":"123456","meta":{"profile":["http://hl7.org/fhir/us/qicore/StructureDefinition/qicore-organization"]},"identifier":[{"use":"temp","system":"urn:oid:2.16.840.1.113883.4.4","value":"21-3259825"}],"active":true,"type":[{"coding":[{"system":"http://terminology.hl7.org/CodeSystem/organization-type","code":"pay","display":"Payer"}]}],"name":"Blue Cross Blue Shield of Texas","telecom":[{"system":"phone","value":"(+1) 972-766-6900"}],"address":[{"use":"billing","type":"postal","line":["P.O. Box 660044"],"city":"Dallas","state":"TX","postalCode":"75266-0044","country":"USA"}]},"request":{"method":"PUT","url":"Organization/123456"}},{"fullUrl":"https://madie.cms.gov/Practitioner/practitioner-123456","resource":{"resourceType":"Practitioner","id":"practitioner-123456","identifier":[{"system":"http://hl7.org/fhir/sid/us-npi","value":"123456"}],"name":[{"family":"Evil","prefix":["Dr"]}]},"request":{"method":"PUT","url":"Practitioner/practitioner-123456"}},{"fullUrl":"https://madie.cms.gov/MeasureReport/d0a790b6-bcc1-4e44-aa32-977fb3cc989b","resource":{"resourceType":"MeasureReport","id":"d0a790b6-bcc1-4e44-aa32-977fb3cc989b","meta":{"profile":["http://hl7.org/fhir/us/cqfmeasures/StructureDefinition/test-case-cqfm"]},"contained":[{"resourceType":"Parameters","id":"05204187-5445-4fb6-9a98-1e3f415448d2-parameters","parameter":[{"name":"subject","valueString":"41ab4767-1013-4d6f-a84a-06d425f2d8d1"}]}],"extension":[{"url":"http://hl7.org/fhir/us/cqfmeasures/StructureDefinition/cqfm-inputParameters","valueReference":{"reference":"#05204187-5445-4fb6-9a98-1e3f415448d2-parameters"}},{"url":"http://hl7.org/fhir/us/cqfmeasures/StructureDefinition/cqfm-testCaseDescription","valueMarkdown":"Patient is over 17 years of age with office visit encounter "}],"modifierExtension":[{"url":"http://hl7.org/fhir/us/cqfmeasures/StructureDefinition/cqfm-isTestCase","valueBoolean":true}],"status":"complete","type":"individual","measure":"https://madie.cms.gov/Measure/ChildandAdolescentMajorDepressiveDisorderMDDSuicideRiskAssessmentFHIR","period":{"start":"2025-01-01","end":"2025-12-31"},"group":[{"population":[{"code":{"coding":[{"system":"http://terminology.hl7.org/CodeSystem/measure-population","code":"initial-population","display":"Initial Population"}]},"count":0},{"code":{"coding":[{"system":"http://terminology.hl7.org/CodeSystem/measure-population","code":"denominator","display":"Denominator"}]},"count":0},{"code":{"coding":[{"system":"http://terminology.hl7.org/CodeSystem/measure-population","code":"numerator","display":"Numerator"}]},"count":0}]}],"evaluatedResource":[{"reference":"Patient/41ab4767-1013-4d6f-a84a-06d425f2d8d1"},{"reference":"Encounter/5c98fd1ab848464ed33e9e75"},{"reference":"Condition/major-depressive-disorder-active-c3a1"},{"reference":"Coverage/payer-6185"},{"reference":"Organization/123456"},{"reference":"Practitioner/practitioner-123456"}]},"request":{"method":"PUT","url":"MeasureReport/d0a790b6-bcc1-4e44-aa32-977fb3cc989b"}}]}