{"resourceType":"Bundle","id":"tests-f2b9b006-6580-4857-b336-f8a962bf3065-bundle","type":"transaction","entry":[{"fullUrl":"https://madie.cms.gov/Patient/f2b9b006-6580-4857-b336-f8a962bf3065","resource":{"resourceType":"Patient","id":"f2b9b006-6580-4857-b336-f8a962bf3065","meta":{"profile":["http://hl7.org/fhir/us/qicore/StructureDefinition/qicore-patient"]},"extension":[{"url":"http://hl7.org/fhir/us/core/StructureDefinition/us-core-race","extension":[{"url":"ombCategory","valueCoding":{"system":"urn:oid:2.16.840.1.113883.6.238","code":"1002-5","display":"American Indian or Alaska Native","userSelected":true}},{"url":"text","valueString":"American Indian or Alaska Native"}]},{"url":"http://hl7.org/fhir/us/core/StructureDefinition/us-core-ethnicity","extension":[{"url":"ombCategory","valueCoding":{"system":"urn:oid:2.16.840.1.113883.6.238","code":"2135-2","display":"Hispanic or Latino","userSelected":true}},{"url":"text","valueString":"Hispanic or Latino"}]}],"identifier":[{"type":{"coding":[{"system":"http://terminology.hl7.org/CodeSystem/v2-0203","code":"MR"}]},"system":"https://bonnie-fhir.healthit.gov/","value":"62a8ed517cd4224805183904"}],"name":[{"family":"DENEXCEPPass","given":["PatientDeclinedBP"]}],"gender":"male","birthDate":"2004-12-31"},"request":{"method":"PUT","url":"Patient/f2b9b006-6580-4857-b336-f8a962bf3065"}},{"fullUrl":"https://madie.cms.gov/Encounter/encounter-to-screen-for-blood-pressure-3905","resource":{"resourceType":"Encounter","id":"encounter-to-screen-for-blood-pressure-3905","meta":{"profile":["http://hl7.org/fhir/us/qicore/StructureDefinition/qicore-encounter"]},"status":"finished","class":{"system":"http://terminology.hl7.org/CodeSystem/v3-ActCode","code":"AMB","display":"ambulatory"},"type":[{"coding":[{"system":"http://snomed.info/sct","version":"2022-09","code":"103705002","display":"Patient status observation (procedure)","userSelected":true}]}],"subject":{"reference":"Patient/f2b9b006-6580-4857-b336-f8a962bf3065"},"period":{"start":"2025-01-01T08:00:00.000+00:00","end":"2025-01-01T09:15:00.000+00:00"}},"request":{"method":"PUT","url":"Encounter/encounter-to-screen-for-blood-pressure-3905"}},{"fullUrl":"https://madie.cms.gov/Observation/systolic-blood-pressure-3906","resource":{"resourceType":"Observation","id":"systolic-blood-pressure-3906","meta":{"profile":["http://hl7.org/fhir/us/qicore/StructureDefinition/qicore-observationnotdone"]},"extension":[{"url":"http://hl7.org/fhir/us/qicore/StructureDefinition/qicore-notDoneReason","valueCodeableConcept":{"coding":[{"system":"http://snomed.info/sct","code":"105480006","display":"Procedure declined by patient (situation)","userSelected":true}]}}],"modifierExtension":[{"url":"http://Hl7.org/fhir/us/qicore/StructureDefinition/qicore-notDone","valueBoolean":true}],"status":"cancelled","category":[{"coding":[{"system":"http://terminology.hl7.org/CodeSystem/observation-category","code":"procedure","display":"Procedure"}]}],"code":{"coding":[{"system":"http://loinc.org","code":"8480-6","display":"Systolic blood pressure","userSelected":true}]},"subject":{"reference":"Patient/f2b9b006-6580-4857-b336-f8a962bf3065"},"effectiveDateTime":"2025-01-01T08:10:00.000+00:00","issued":"2025-01-01T08:05:00.000+00:00","valueBoolean":true},"request":{"method":"PUT","url":"Observation/systolic-blood-pressure-3906"}},{"fullUrl":"https://madie.cms.gov/Observation/diastolic-blood-pressure-3907","resource":{"resourceType":"Observation","id":"diastolic-blood-pressure-3907","meta":{"profile":["http://hl7.org/fhir/us/qicore/StructureDefinition/qicore-observationnotdone"]},"extension":[{"url":"http://hl7.org/fhir/us/qicore/StructureDefinition/qicore-notDoneReason","valueCodeableConcept":{"coding":[{"system":"http://snomed.info/sct","code":"105480006","display":"Procedure declined by patient (situation)","userSelected":true}]}}],"modifierExtension":[{"url":"http://Hl7.org/fhir/us/qicore/StructureDefinition/qicore-notDone","valueBoolean":true}],"status":"cancelled","category":[{"coding":[{"system":"http://terminology.hl7.org/CodeSystem/observation-category","code":"procedure","display":"Procedure"}]}],"code":{"coding":[{"system":"http://loinc.org","code":"8462-4","display":"Diastolic blood pressure","userSelected":true}]},"subject":{"reference":"Patient/f2b9b006-6580-4857-b336-f8a962bf3065"},"effectiveDateTime":"2025-01-01T08:10:00.000+00:00","issued":"2025-01-01T08:05:00.000+00:00","valueBoolean":true},"request":{"method":"PUT","url":"Observation/diastolic-blood-pressure-3907"}},{"fullUrl":"https://madie.cms.gov/Coverage/1","resource":{"resourceType":"Coverage","id":"Coverage-1","meta":{"profile":["http://hl7.org/fhir/us/qicore/StructureDefinition/qicore-coverage"]},"status":"active","beneficiary":{"reference":"Patient/f2b9b006-6580-4857-b336-f8a962bf3065"},"payor":[{"reference":"Organization/Org-123456"}]},"request":{"method":"PUT","url":"Coverage/Coverage-1"}},{"fullUrl":"https://madie.cms.gov/Organization/123456","resource":{"resourceType":"Organization","id":"Org-123456","meta":{"profile":["http://hl7.org/fhir/us/qicore/StructureDefinition/qicore-organization"]},"identifier":[{"use":"temp","system":"urn:oid:2.16.840.1.113883.4.4","value":"21-3259825"}],"active":true,"type":[{"coding":[{"system":"http://terminology.hl7.org/CodeSystem/organization-type","code":"pay","display":"Payer"}]}],"name":"Blue Cross Blue Shield of Texas","telecom":[{"system":"phone","value":"(+1) 972-766-6900"}],"address":[{"use":"billing","type":"postal","line":["P.O. Box 660044"],"city":"Dallas","state":"TX","postalCode":"75266-0044","country":"USA"}]},"request":{"method":"PUT","url":"Organization/Org-123456"}},{"fullUrl":"https://madie.cms.gov/Practitioner/practitioner-123456","resource":{"resourceType":"Practitioner","id":"practitioner-123456","meta":{"profile":["http://hl7.org/fhir/us/qicore/StructureDefinition/qicore-practitioner"]},"identifier":[{"system":"http://hl7.org/fhir/sid/us-npi","value":"123456"}],"name":[{"family":"Evil","prefix":["Dr"]}]},"request":{"method":"PUT","url":"Practitioner/practitioner-123456"}},{"fullUrl":"https://madie.cms.gov/MeasureReport/f700767f-84d1-4486-99cb-d2a9782e850f","resource":{"resourceType":"MeasureReport","id":"f700767f-84d1-4486-99cb-d2a9782e850f","meta":{"profile":["http://hl7.org/fhir/us/cqfmeasures/StructureDefinition/test-case-cqfm"]},"contained":[{"resourceType":"Parameters","id":"9ec7600e-6e70-469a-bea6-b5034ac4757e-parameters","parameter":[{"name":"subject","valueString":"f2b9b006-6580-4857-b336-f8a962bf3065"}]}],"extension":[{"url":"http://hl7.org/fhir/us/cqfmeasures/StructureDefinition/cqfm-inputParameters","valueReference":{"reference":"#9ec7600e-6e70-469a-bea6-b5034ac4757e-parameters"}},{"url":"http://hl7.org/fhir/us/cqfmeasures/StructureDefinition/cqfm-testCaseDescription","valueMarkdown":"Encounter first day of MP, patient refused BP measurement, "}],"modifierExtension":[{"url":"http://hl7.org/fhir/us/cqfmeasures/StructureDefinition/cqfm-isTestCase","valueBoolean":true}],"status":"complete","type":"individual","measure":"https://madie.cms.gov/Measure/PCSBPScreeningFollowUpFHIR","period":{"start":"2025-01-01","end":"2025-12-31"},"group":[{"population":[{"code":{"coding":[{"system":"http://terminology.hl7.org/CodeSystem/measure-population","code":"initial-population","display":"Initial Population"}]},"count":1},{"code":{"coding":[{"system":"http://terminology.hl7.org/CodeSystem/measure-population","code":"denominator","display":"Denominator"}]},"count":1},{"code":{"coding":[{"system":"http://terminology.hl7.org/CodeSystem/measure-population","code":"denominator-exclusion","display":"Denominator Exclusion"}]},"count":0},{"code":{"coding":[{"system":"http://terminology.hl7.org/CodeSystem/measure-population","code":"numerator","display":"Numerator"}]},"count":0},{"code":{"coding":[{"system":"http://terminology.hl7.org/CodeSystem/measure-population","code":"denominator-exception","display":"Denominator Exception"}]},"count":1}]}],"evaluatedResource":[{"reference":"Patient/f2b9b006-6580-4857-b336-f8a962bf3065"},{"reference":"Encounter/encounter-to-screen-for-blood-pressure-3905"},{"reference":"Observation/systolic-blood-pressure-3906"},{"reference":"Observation/diastolic-blood-pressure-3907"},{"reference":"Coverage/Coverage-1"},{"reference":"Organization/Org-123456"},{"reference":"Practitioner/practitioner-123456"}]},"request":{"method":"PUT","url":"MeasureReport/f700767f-84d1-4486-99cb-d2a9782e850f"}}]}