{"resourceType":"Bundle","id":"tests-631fbecb-2bdc-4e1e-a9e1-52357222474a-bundle","type":"transaction","entry":[{"fullUrl":"https://madie.cms.gov/Patient/631fbecb-2bdc-4e1e-a9e1-52357222474a","resource":{"resourceType":"Patient","id":"631fbecb-2bdc-4e1e-a9e1-52357222474a","meta":{"profile":["http://hl7.org/fhir/us/qicore/StructureDefinition/qicore-patient"]},"extension":[{"url":"http://hl7.org/fhir/us/core/StructureDefinition/us-core-race","extension":[{"url":"ombCategory","valueCoding":{"system":"urn:oid:2.16.840.1.113883.6.238","code":"2028-9","display":"Asian","userSelected":true}},{"url":"text","valueString":"Asian"}]},{"url":"http://hl7.org/fhir/us/core/StructureDefinition/us-core-ethnicity","extension":[{"url":"ombCategory","valueCoding":{"system":"urn:oid:2.16.840.1.113883.6.238","code":"2186-5","display":"Not Hispanic or Latino","userSelected":true}},{"url":"text","valueString":"Not Hispanic or Latino"}]}],"identifier":[{"type":{"coding":[{"system":"http://terminology.hl7.org/CodeSystem/v2-0203","code":"MR"}]},"system":"https://bonnie-fhir.healthit.gov/","value":"62fa89c3d13907679e12d618"}],"name":[{"family":"NUMERFail","given":["NormalBPStatusEnteredInError"]}],"gender":"female","birthDate":"2004-01-31"},"request":{"method":"PUT","url":"Patient/631fbecb-2bdc-4e1e-a9e1-52357222474a"}},{"fullUrl":"https://madie.cms.gov/Encounter/encounter-to-screen-for-blood-pressure-d1ae","resource":{"resourceType":"Encounter","id":"encounter-to-screen-for-blood-pressure-d1ae","meta":{"profile":["http://hl7.org/fhir/us/qicore/StructureDefinition/qicore-encounter"]},"status":"finished","class":{"system":"http://terminology.hl7.org/CodeSystem/v3-ActCode","code":"AMB","display":"ambulatory"},"type":[{"coding":[{"system":"http://snomed.info/sct","version":"2022-03","code":"103705002","display":"Patient status observation (procedure)","userSelected":true}]}],"subject":{"reference":"Patient/631fbecb-2bdc-4e1e-a9e1-52357222474a"},"period":{"start":"2025-01-01T08:00:00.000+00:00","end":"2025-01-01T11:30:00.000+00:00"}},"request":{"method":"PUT","url":"Encounter/encounter-to-screen-for-blood-pressure-d1ae"}},{"fullUrl":"https://madie.cms.gov/Observation/systolic-blood-pressure-d1af","resource":{"resourceType":"Observation","id":"systolic-blood-pressure-d1af","meta":{"profile":["http://hl7.org/fhir/us/qicore/StructureDefinition/qicore-observation"]},"status":"entered-in-error","category":[{"coding":[{"system":"http://terminology.hl7.org/CodeSystem/observation-category","code":"procedure","display":"Procedure"}]}],"code":{"coding":[{"system":"http://loinc.org","code":"8480-6","display":"Systolic blood pressure","userSelected":true}]},"subject":{"reference":"Patient/631fbecb-2bdc-4e1e-a9e1-52357222474a"},"effectiveDateTime":"2025-01-01T08:05:00.000+00:00","valueQuantity":{"value":119.0,"unit":"mm[Hg]"}},"request":{"method":"PUT","url":"Observation/systolic-blood-pressure-d1af"}},{"fullUrl":"https://madie.cms.gov/Observation/diastolic-blood-pressure-d1b0","resource":{"resourceType":"Observation","id":"diastolic-blood-pressure-d1b0","meta":{"profile":["http://hl7.org/fhir/us/qicore/StructureDefinition/qicore-observation"]},"status":"final","category":[{"coding":[{"system":"http://terminology.hl7.org/CodeSystem/observation-category","code":"procedure","display":"Procedure"}]}],"code":{"coding":[{"system":"http://loinc.org","code":"8462-4","display":"Diastolic blood pressure","userSelected":true}]},"subject":{"reference":"Patient/631fbecb-2bdc-4e1e-a9e1-52357222474a"},"effectiveDateTime":"2025-01-01T08:05:00.000+00:00","valueQuantity":{"value":79.0,"unit":"mm[Hg]"}},"request":{"method":"PUT","url":"Observation/diastolic-blood-pressure-d1b0"}},{"fullUrl":"https://madie.cms.gov/Coverage/1","resource":{"resourceType":"Coverage","id":"Coverage-1","meta":{"profile":["http://hl7.org/fhir/us/qicore/StructureDefinition/qicore-coverage"]},"status":"active","beneficiary":{"reference":"Patient/631fbecb-2bdc-4e1e-a9e1-52357222474a"},"payor":[{"reference":"Organization/Org-123456"}]},"request":{"method":"PUT","url":"Coverage/Coverage-1"}},{"fullUrl":"https://madie.cms.gov/Organization/123456","resource":{"resourceType":"Organization","id":"Org-123456","meta":{"profile":["http://hl7.org/fhir/us/qicore/StructureDefinition/qicore-organization"]},"identifier":[{"use":"temp","system":"urn:oid:2.16.840.1.113883.4.4","value":"21-3259825"}],"active":true,"type":[{"coding":[{"system":"http://terminology.hl7.org/CodeSystem/organization-type","code":"pay","display":"Payer"}]}],"name":"Blue Cross Blue Shield of Texas","telecom":[{"system":"phone","value":"(+1) 972-766-6900"}],"address":[{"use":"billing","type":"postal","line":["P.O. Box 660044"],"city":"Dallas","state":"TX","postalCode":"75266-0044","country":"USA"}]},"request":{"method":"PUT","url":"Organization/Org-123456"}},{"fullUrl":"https://madie.cms.gov/Practitioner/practitioner-123456","resource":{"resourceType":"Practitioner","id":"practitioner-123456","meta":{"profile":["http://hl7.org/fhir/us/qicore/StructureDefinition/qicore-practitioner"]},"identifier":[{"system":"http://hl7.org/fhir/sid/us-npi","value":"123456"}],"name":[{"family":"Evil","prefix":["Dr"]}]},"request":{"method":"PUT","url":"Practitioner/practitioner-123456"}},{"fullUrl":"https://madie.cms.gov/MeasureReport/b49fb5bc-46f5-4b26-ba18-c67d815b526f","resource":{"resourceType":"MeasureReport","id":"b49fb5bc-46f5-4b26-ba18-c67d815b526f","meta":{"profile":["http://hl7.org/fhir/us/cqfmeasures/StructureDefinition/test-case-cqfm"]},"contained":[{"resourceType":"Parameters","id":"ad83f334-ac00-4635-9599-9ef609a83396-parameters","parameter":[{"name":"subject","valueString":"631fbecb-2bdc-4e1e-a9e1-52357222474a"}]}],"extension":[{"url":"http://hl7.org/fhir/us/cqfmeasures/StructureDefinition/cqfm-inputParameters","valueReference":{"reference":"#ad83f334-ac00-4635-9599-9ef609a83396-parameters"}},{"url":"http://hl7.org/fhir/us/cqfmeasures/StructureDefinition/cqfm-testCaseDescription","valueMarkdown":"Age 18 or older, encounter first day of MP, Normal BP reading but systolic status \"entered in error\". "}],"modifierExtension":[{"url":"http://hl7.org/fhir/us/cqfmeasures/StructureDefinition/cqfm-isTestCase","valueBoolean":true}],"status":"complete","type":"individual","measure":"https://madie.cms.gov/Measure/PCSBPScreeningFollowUpFHIR","period":{"start":"2025-01-01","end":"2025-12-31"},"group":[{"population":[{"code":{"coding":[{"system":"http://terminology.hl7.org/CodeSystem/measure-population","code":"initial-population","display":"Initial Population"}]},"count":1},{"code":{"coding":[{"system":"http://terminology.hl7.org/CodeSystem/measure-population","code":"denominator","display":"Denominator"}]},"count":1},{"code":{"coding":[{"system":"http://terminology.hl7.org/CodeSystem/measure-population","code":"denominator-exclusion","display":"Denominator Exclusion"}]},"count":0},{"code":{"coding":[{"system":"http://terminology.hl7.org/CodeSystem/measure-population","code":"numerator","display":"Numerator"}]},"count":0},{"code":{"coding":[{"system":"http://terminology.hl7.org/CodeSystem/measure-population","code":"denominator-exception","display":"Denominator Exception"}]},"count":0}]}],"evaluatedResource":[{"reference":"Patient/631fbecb-2bdc-4e1e-a9e1-52357222474a"},{"reference":"Encounter/encounter-to-screen-for-blood-pressure-d1ae"},{"reference":"Observation/systolic-blood-pressure-d1af"},{"reference":"Observation/diastolic-blood-pressure-d1b0"},{"reference":"Coverage/1"},{"reference":"Organization/123456"},{"reference":"Practitioner/practitioner-123456"}]},"request":{"method":"PUT","url":"MeasureReport/b49fb5bc-46f5-4b26-ba18-c67d815b526f"}}]}