{
  "resourceType": "Bundle",
  "id": "612e6b5702c62a011f2ed65c",
  "type": "transaction",
  "entry": [ {
    "fullUrl": "https://madie.cms.gov/Patient/dd5a1e46-1b99-45a3-b4d3-1fde205d8a11",
    "resource": {
      "resourceType": "Patient",
      "id": "dd5a1e46-1b99-45a3-b4d3-1fde205d8a11",
      "meta": {
        "profile": [ "http://hl7.org/fhir/us/qicore/StructureDefinition/qicore-patient" ]
      },
      "text": {
        "status": "generated",
        "div": "<div xmlns=\"http://www.w3.org/1999/xhtml\"><div class=\"hapiHeaderText\">DxVTEClinicalStatusRemission <b>NUMERPASS </b></div><table class=\"hapiPropertyTable\"><tbody><tr><td>Identifier</td><td>53ba7bfa81859444ffcb221a690f5daf</td></tr><tr><td>Date of birth</td><td><span>02 January 1974</span></td></tr></tbody></table></div>"
      },
      "extension": [ {
        "url": "http://hl7.org/fhir/us/core/StructureDefinition/us-core-race",
        "extension": [ {
          "url": "ombCategory",
          "valueCoding": {
            "system": "urn:oid:2.16.840.1.113883.6.238",
            "code": "1002-5",
            "display": "American Indian or Alaska Native",
            "userSelected": true
          }
        }, {
          "url": "text",
          "valueString": "American Indian or Alaska Native"
        } ]
      }, {
        "url": "http://hl7.org/fhir/us/core/StructureDefinition/us-core-ethnicity",
        "extension": [ {
          "url": "ombCategory",
          "valueCoding": {
            "system": "urn:oid:2.16.840.1.113883.6.238",
            "code": "2135-2",
            "display": "Hispanic or Latino",
            "userSelected": true
          }
        }, {
          "url": "text",
          "valueString": "Hispanic or Latino"
        } ]
      } ],
      "identifier": [ {
        "type": {
          "coding": [ {
            "system": "http://terminology.hl7.org/CodeSystem/v2-0203",
            "code": "MR"
          } ]
        },
        "system": "https://bonnie-fhir.healthit.gov/",
        "value": "612e6b5702c62a011f2ed65c"
      } ],
      "active": true,
      "name": [ {
        "use": "usual",
        "family": "NUMERPass",
        "given": [ "DxVTEClinicalStatusRemission" ]
      } ],
      "gender": "male",
      "birthDate": "1974-01-02"
    },
    "request": {
      "method": "POST",
      "url": "Patient/dd5a1e46-1b99-45a3-b4d3-1fde205d8a11"
    }
  }, {
    "fullUrl": "https://madie.cms.gov/Encounter/5ca62961b8484628b8de1e97",
    "resource": {
      "resourceType": "Encounter",
      "id": "5ca62961b8484628b8de1e97",
      "meta": {
        "profile": [ "http://hl7.org/fhir/us/qicore/StructureDefinition/qicore-encounter" ]
      },
      "status": "finished",
      "class": {
        "system": "http://terminology.hl7.org/CodeSystem/v3-ActCode",
        "code": "IMP",
        "display": "inpatient encounter"
      },
      "type": [ {
        "coding": [ {
          "system": "http://snomed.info/sct",
          "code": "8715000"
        } ]
      } ],
      "subject": {
        "reference": "Patient/33d162ce-3bc7-4b0a-8c04-fec0a42a6264"
      },
      "period": {
        "start": "2025-11-01T08:00:00+00:00",
        "end": "2025-11-26T08:15:00+00:00"
      },
      "length": {
        "value": 25.0,
        "unit": "days"
      }
    },
    "request": {
      "method": "POST",
      "url": "Encounter/5ca62961b8484628b8de1e97"
    }
  }, {
    "fullUrl": "https://madie.cms.gov/Coverage/5fa0415a1c76ba66d995929b",
    "resource": {
      "resourceType": "Coverage",
      "id": "5fa0415a1c76ba66d995929b",
      "status": "active",
      "beneficiary": {
        "reference": "Patient/33d162ce-3bc7-4b0a-8c04-fec0a42a6264"
      },
      "period": {
        "start": "1974-01-02T08:00:00+00:00"
      },
      "payor": [ {
        "reference": "Organization/123456"
      } ]
    },
    "request": {
      "method": "POST",
      "url": "Coverage/5fa0415a1c76ba66d995929b"
    }
  }, {
    "fullUrl": "https://madie.cms.gov/Condition/6033f9023d5f550000fb8fd0",
    "resource": {
      "resourceType": "Condition",
      "id": "6033f9023d5f550000fb8fd0",
      "meta": {
        "profile": [ "http://hl7.org/fhir/us/qicore/StructureDefinition/qicore-condition" ]
      },
      "clinicalStatus": {
        "coding": [ {
          "system": "http://terminology.hl7.org/CodeSystem/condition-clinical",
          "code": "remission",
          "display": "remission",
          "userSelected": true
        } ]
      },
      "verificationStatus": {
        "coding": [ {
          "system": "http://terminology.hl7.org/CodeSystem/condition-ver-status",
          "code": "confirmed",
          "display": "confirmed",
          "userSelected": true
        } ]
      },
      "category": [ {
        "coding": [ {
          "system": "http://terminology.hl7.org/CodeSystem/condition-category",
          "code": "problem-list-item",
          "display": "Problem List Item"
        } ]
      } ],
      "code": {
        "coding": [ {
          "system": "http://snomed.info/sct",
          "code": "1001000119102",
          "display": "Pulmonary embolism with pulmonary"
        } ]
      },
      "subject": {
        "reference": "Patient/33d162ce-3bc7-4b0a-8c04-fec0a42a6264"
      },
      "onsetPeriod": {
        "start": "2025-10-09T08:00:00+00:00",
        "end": "2025-10-09T08:15:00+00:00"
      }
    },
    "request": {
      "method": "POST",
      "url": "Condition/6033f9023d5f550000fb8fd0"
    }
  }, {
    "fullUrl": "https://madie.cms.gov/MedicationAdministration/5ca62961b8484628b8de1e98",
    "resource": {
      "resourceType": "MedicationAdministration",
      "id": "5ca62961b8484628b8de1e98",
      "meta": {
        "profile": [ "http://hl7.org/fhir/us/qicore/StructureDefinition/qicore-medicationadministration" ]
      },
      "status": "completed",
      "medicationCodeableConcept": {
        "coding": [ {
          "system": "http://www.nlm.nih.gov/research/umls/rxnorm",
          "code": "1599543",
          "display": "edoxaban 15 MG Oral Tablet"
        } ]
      },
      "subject": {
        "reference": "Patient/33d162ce-3bc7-4b0a-8c04-fec0a42a6264"
      },
      "effectivePeriod": {
        "start": "2025-11-01T11:00:00+00:00",
        "end": "2025-11-01T11:05:00+00:00"
      }
    },
    "request": {
      "method": "POST",
      "url": "MedicationAdministration/5ca62961b8484628b8de1e98"
    }
  }, {
    "fullUrl": "https://madie.cms.gov/Organization/123456",
    "resource": {
      "resourceType": "Organization",
      "id": "123456",
      "meta": {
        "profile": [ "http://hl7.org/fhir/us/qicore/StructureDefinition/qicore-organization" ]
      },
      "identifier": [ {
        "use": "temp",
        "system": "urn:oid:2.16.840.1.113883.4.4",
        "value": "21-3259825"
      } ],
      "active": true,
      "type": [ {
        "coding": [ {
          "system": "http://terminology.hl7.org/CodeSystem/organization-type",
          "code": "pay",
          "display": "Payer"
        } ]
      } ],
      "name": "Blue Cross Blue Shield of Texas",
      "telecom": [ {
        "system": "phone",
        "value": "(+1) 972-766-6900"
      } ],
      "address": [ {
        "use": "billing",
        "type": "postal",
        "line": [ "P.O. Box 660044" ],
        "city": "Dallas",
        "state": "TX",
        "postalCode": "75266-0044",
        "country": "USA"
      } ]
    },
    "request": {
      "method": "POST",
      "url": "Organization/123456"
    }
  }, {
    "fullUrl": "https://madie.cms.gov/MeasureReport/3ce3a652-4153-40cf-93c8-979a11ae883e",
    "resource": {
      "resourceType": "MeasureReport",
      "id": "3ce3a652-4153-40cf-93c8-979a11ae883e",
      "meta": {
        "profile": [ "http://hl7.org/fhir/us/cqfmeasures/StructureDefinition/test-case-cqfm" ]
      },
      "contained": [ {
        "resourceType": "Parameters",
        "id": "93289c1b-c658-4631-836e-71cd0009bec1-parameters",
        "parameter": [ {
          "name": "subject",
          "valueString": "dd5a1e46-1b99-45a3-b4d3-1fde205d8a11"
        } ]
      } ],
      "extension": [ {
        "url": "http://hl7.org/fhir/us/cqfmeasures/StructureDefinition/cqfm-inputParameters",
        "valueReference": {
          "reference": "#93289c1b-c658-4631-836e-71cd0009bec1-parameters"
        }
      }, {
        "url": "http://hl7.org/fhir/us/cqfmeasures/StructureDefinition/cqfm-testCaseDescription",
        "valueMarkdown": "To test and cover Condition. clinicalStatus  in remission. >18, LOS<120 day. Medication, Administered: Oral Factor Xa Inhibitor for VTE Prophylaxis with diagnosis of  VTE starts before the encounter."
      } ],
      "modifierExtension": [ {
        "url": "http://hl7.org/fhir/us/cqfmeasures/StructureDefinition/cqfm-isTestCase",
        "valueBoolean": true
      } ],
      "status": "complete",
      "type": "individual",
      "measure": "https://madie.cms.gov/Measure/VenousThromboembolismProphylaxisFHIR",
      "period": {
        "start": "2025-01-01",
        "end": "2025-12-31"
      },
      "group": [ {
        "population": [ {
          "code": {
            "coding": [ {
              "system": "http://terminology.hl7.org/CodeSystem/measure-population",
              "code": "initial-population",
              "display": "Initial Population"
            } ]
          },
          "count": 1
        }, {
          "code": {
            "coding": [ {
              "system": "http://terminology.hl7.org/CodeSystem/measure-population",
              "code": "denominator",
              "display": "Denominator"
            } ]
          },
          "count": 1
        }, {
          "code": {
            "coding": [ {
              "system": "http://terminology.hl7.org/CodeSystem/measure-population",
              "code": "denominator-exclusion",
              "display": "Denominator Exclusion"
            } ]
          },
          "count": 0
        }, {
          "code": {
            "coding": [ {
              "system": "http://terminology.hl7.org/CodeSystem/measure-population",
              "code": "numerator",
              "display": "Numerator"
            } ]
          },
          "count": 1
        } ]
      } ],
      "evaluatedResource": [ {
        "reference": "https://madie.cms.gov/Patient/dd5a1e46-1b99-45a3-b4d3-1fde205d8a11"
      }, {
        "reference": "https://madie.cms.gov/Encounter/5ca62961b8484628b8de1e97"
      }, {
        "reference": "https://madie.cms.gov/Coverage/5fa0415a1c76ba66d995929b"
      }, {
        "reference": "https://madie.cms.gov/Condition/6033f9023d5f550000fb8fd0"
      }, {
        "reference": "https://madie.cms.gov/MedicationAdministration/5ca62961b8484628b8de1e98"
      }, {
        "reference": "https://madie.cms.gov/Organization/123456"
      } ]
    },
    "request": {
      "method": "POST",
      "url": "MeasureReport/3ce3a652-4153-40cf-93c8-979a11ae883e"
    }
  } ]
}