{"resourceType":"Bundle","id":"tests-37526b3c-564e-4e1f-910a-3a41f06d9c24-bundle","type":"transaction","entry":[{"fullUrl":"https://madie.cms.gov/Patient/37526b3c-564e-4e1f-910a-3a41f06d9c24","resource":{"resourceType":"Patient","id":"37526b3c-564e-4e1f-910a-3a41f06d9c24","meta":{"profile":["http://hl7.org/fhir/us/qicore/StructureDefinition/qicore-patient"]},"text":{"status":"generated","div":"<div xmlns=\"http://www.w3.org/1999/xhtml\"><div class=\"hapiHeaderText\">LT24beforeAndGT2after_relevantDT <b>SBPPASS </b></div><table class=\"hapiPropertyTable\"><tbody><tr><td>Identifier</td><td>ff71e6df6fc1b78e69460d357884fa81714d2acf91ffda248ad3470e982fcab8</td></tr><tr><td>Date of birth</td><td><span>15 June 1956</span></td></tr></tbody></table></div>"},"extension":[{"url":"http://hl7.org/fhir/us/core/StructureDefinition/us-core-race","extension":[{"url":"ombCategory","valueCoding":{"system":"urn:oid:2.16.840.1.113883.6.238","code":"1002-5","display":"American Indian or Alaska Native","userSelected":true}},{"url":"text","valueString":"American Indian or Alaska Native"}]},{"url":"http://hl7.org/fhir/us/core/StructureDefinition/us-core-ethnicity","extension":[{"url":"ombCategory","valueCoding":{"system":"urn:oid:2.16.840.1.113883.6.238","code":"2186-5","display":"Not Hispanic or Latino","userSelected":true}},{"url":"text","valueString":"Not Hispanic or Latino"}]}],"identifier":[{"type":{"coding":[{"system":"http://terminology.hl7.org/CodeSystem/v2-0203","code":"MR"}]},"system":"https://bonnie-fhir.healthit.gov/","value":"63ec0968ccb3770120fe9e26"}],"active":true,"name":[{"use":"usual","family":"SystolicBPPass","given":["InED15AndHalfHrsBeforeInpatientAdmit"]}],"gender":"male","birthDate":"1957-06-15"},"request":{"method":"PUT","url":"Patient/37526b3c-564e-4e1f-910a-3a41f06d9c24"}},{"fullUrl":"https://madie.cms.gov/Encounter/aa644813-2dc3-4aec-9f4d-e890b81ee096","resource":{"resourceType":"Encounter","id":"aa644813-2dc3-4aec-9f4d-e890b81ee096","meta":{"profile":["http://hl7.org/fhir/us/qicore/StructureDefinition/qicore-encounter"]},"status":"finished","class":{"system":"http://terminology.hl7.org/CodeSystem/v3-ActCode","code":"EMER","display":"emergency","userSelected":true},"type":[{"coding":[{"system":"http://snomed.info/sct","code":"4525004","display":"Emergency department patient visit (procedure)"}]}],"subject":{"reference":"Patient/37526b3c-564e-4e1f-910a-3a41f06d9c24"},"period":{"start":"2026-07-01T00:01:00.000+00:00","end":"2026-07-01T15:00:00.000+00:00"},"length":{"value":1,"unit":"days"}},"request":{"method":"PUT","url":"Encounter/aa644813-2dc3-4aec-9f4d-e890b81ee096"}},{"fullUrl":"https://madie.cms.gov/Encounter/2b8bb81d-fae7-4dae-905d-0bc9abdc2bab","resource":{"resourceType":"Encounter","id":"2b8bb81d-fae7-4dae-905d-0bc9abdc2bab","meta":{"profile":["http://hl7.org/fhir/us/qicore/StructureDefinition/qicore-encounter"]},"status":"finished","class":{"system":"http://terminology.hl7.org/CodeSystem/v3-ActCode","code":"IMP","display":"inpatient encounter","userSelected":true},"type":[{"coding":[{"system":"http://snomed.info/sct","code":"183452005"}]}],"subject":{"reference":"Patient/37526b3c-564e-4e1f-910a-3a41f06d9c24"},"period":{"start":"2026-07-01T15:00:00.000+00:00","end":"2026-07-05T08:15:00.000+00:00"},"length":{"value":1,"unit":"days"}},"request":{"method":"PUT","url":"Encounter/2b8bb81d-fae7-4dae-905d-0bc9abdc2bab"}},{"fullUrl":"https://madie.cms.gov/Coverage/001caeef-2218-4ce4-8813-858d7d3d38cc","resource":{"resourceType":"Coverage","id":"001caeef-2218-4ce4-8813-858d7d3d38cc","meta":{"profile":["http://hl7.org/fhir/us/qicore/StructureDefinition/qicore-coverage"]},"status":"active","type":{"coding":[{"system":"https://nahdo.org/sopt","version":"1.0.1","code":"1","display":"Medicare payer","userSelected":true}]},"beneficiary":{"reference":"Patient/37526b3c-564e-4e1f-910a-3a41f06d9c24"},"payor":[{"reference":"Organization/18ca435c-cae6-4c34-8033-af717477f9fc"}]},"request":{"method":"PUT","url":"Coverage/001caeef-2218-4ce4-8813-858d7d3d38cc"}},{"fullUrl":"https://madie.cms.gov/Observation/3e4bd833-f385-4a9d-811b-d6cd0d32f278","resource":{"resourceType":"Observation","id":"3e4bd833-f385-4a9d-811b-d6cd0d32f278","meta":{"profile":["http://hl7.org/fhir/StructureDefinition/bp"]},"status":"final","category":[{"coding":[{"system":"http://terminology.hl7.org/CodeSystem/observation-category","code":"vital-signs","display":"Vital Signs"}],"text":"Vital Signs"}],"code":{"coding":[{"system":"http://loinc.org","code":"85354-9","display":"Blood pressure panel"}]},"subject":{"reference":"Patient/37526b3c-564e-4e1f-910a-3a41f06d9c24"},"effectiveDateTime":"2026-07-01T00:30:00.000Z","component":[{"code":{"coding":[{"system":"http://loinc.org","code":"8480-6","display":"Systolic blood pressure"}]},"valueQuantity":{"value":131,"unit":"mmHg","system":"http://unitsofmeasure.org","code":"mm[Hg]"}},{"code":{"coding":[{"system":"http://loinc.org","code":"8462-4","display":"Diastolic blood pressure"}]},"valueQuantity":{"value":80,"unit":"mmHg","system":"http://unitsofmeasure.org","code":"mm[Hg]"}}]},"request":{"method":"PUT","url":"Observation/3e4bd833-f385-4a9d-811b-d6cd0d32f278"}},{"fullUrl":"https://madie.cms.gov/Observation/f8074e01-000e-470a-8a6f-5e248d98b926","resource":{"resourceType":"Observation","id":"f8074e01-000e-470a-8a6f-5e248d98b926","meta":{"profile":["http://hl7.org/fhir/us/qicore/StructureDefinition/qicore-observation"]},"status":"amended","category":[{"coding":[{"system":"http://terminology.hl7.org/CodeSystem/observation-category","code":"laboratory","display":"laboratory","userSelected":true}]}],"code":{"coding":[{"system":"http://loinc.org","code":"8480-6"}]},"subject":{"reference":"Patient/37526b3c-564e-4e1f-910a-3a41f06d9c24"},"effectiveDateTime":"2026-07-01T15:00:00.000Z","valueQuantity":{"value":115.0,"unit":"mm[Hg]","system":"http://unitsofmeasure.org","code":"mm[Hg]"}},"request":{"method":"PUT","url":"Observation/f8074e01-000e-470a-8a6f-5e248d98b926"}},{"fullUrl":"https://madie.cms.gov/Organization/81f9519c-53ef-45ef-8425-47330dd4d86c","resource":{"resourceType":"Organization","id":"18ca435c-cae6-4c34-8033-af717477f9fc","meta":{"profile":["http://hl7.org/fhir/us/qicore/StructureDefinition/qicore-organization"]},"identifier":[{"use":"temp","system":"urn:oid:2.16.840.1.113883.4.4","value":"21-3259825"}],"active":true,"type":[{"coding":[{"system":"http://terminology.hl7.org/CodeSystem/organization-type","code":"pay","display":"Payer"}]}],"name":"Blue Cross Blue Shield of Texas","telecom":[{"system":"phone","value":"(+1) 972-766-6900"}],"address":[{"use":"billing","type":"postal","line":["P.O. Box 660044"],"city":"Dallas","state":"TX","postalCode":"75266-0044","country":"USA"}]},"request":{"method":"PUT","url":"Organization/18ca435c-cae6-4c34-8033-af717477f9fc"}},{"fullUrl":"https://madie.cms.gov/Practitioner/5c28ea81-a891-4660-b4c3-5193c6ee538a","resource":{"resourceType":"Practitioner","id":"5c28ea81-a891-4660-b4c3-5193c6ee538a","meta":{"profile":["http://hl7.org/fhir/us/qicore/StructureDefinition/qicore-practitioner"]},"identifier":[{"system":"http://hl7.org/fhir/sid/us-npi","value":"123456"}],"name":[{"family":"Evil","prefix":["Dr"]}]},"request":{"method":"PUT","url":"Practitioner/5c28ea81-a891-4660-b4c3-5193c6ee538a"}},{"fullUrl":"https://madie.cms.gov/MeasureReport/b62d5dc6-ada1-4b67-8685-75bdc1a0fcd3","resource":{"resourceType":"MeasureReport","id":"b62d5dc6-ada1-4b67-8685-75bdc1a0fcd3","meta":{"profile":["http://hl7.org/fhir/us/cqfmeasures/StructureDefinition/test-case-cqfm"]},"contained":[{"resourceType":"Parameters","id":"54a80ed9-acb6-4c7d-bf55-4d56c1dcde50-parameters","parameter":[{"name":"subject","valueString":"37526b3c-564e-4e1f-910a-3a41f06d9c24"}]}],"extension":[{"url":"http://hl7.org/fhir/us/cqfmeasures/StructureDefinition/cqfm-inputParameters","valueReference":{"reference":"#54a80ed9-acb6-4c7d-bf55-4d56c1dcde50-parameters"}},{"url":"http://hl7.org/fhir/us/cqfmeasures/StructureDefinition/cqfm-testCaseDescription","valueMarkdown":"ED Enc first day of MP (7/1) has Medicare, BP evaluated in ED 30 mins after ED start, 15.5 hrs prior to inpatient admit and at inpatient admit 15:00, only the BP taken in ED counted"}],"modifierExtension":[{"url":"http://hl7.org/fhir/us/cqfmeasures/StructureDefinition/cqfm-isTestCase","valueBoolean":true}],"status":"complete","type":"individual","measure":"https://madie.cms.gov/Measure/CMSFHIR844HybridHospitalWideMortality","period":{"start":"2026-07-01","end":"2027-06-30"},"group":[{"population":[{"code":{"coding":[{"system":"http://terminology.hl7.org/CodeSystem/measure-population","code":"initial-population","display":"Initial Population"}]},"count":1}]}]},"request":{"method":"PUT","url":"MeasureReport/b62d5dc6-ada1-4b67-8685-75bdc1a0fcd3"}}]}