{"resourceType":"Bundle","id":"tests-398e8703-6704-4c75-9887-41117761d2c7-bundle","type":"transaction","entry":[{"fullUrl":"https://madie.cms.gov/Patient/398e8703-6704-4c75-9887-41117761d2c7","resource":{"resourceType":"Patient","id":"398e8703-6704-4c75-9887-41117761d2c7","meta":{"profile":["http://hl7.org/fhir/us/qicore/StructureDefinition/qicore-patient"]},"extension":[{"url":"http://hl7.org/fhir/us/core/StructureDefinition/us-core-race","extension":[{"url":"ombCategory","valueCoding":{"system":"urn:oid:2.16.840.1.113883.6.238","code":"2028-9","display":"Asian"}},{"url":"text","valueString":"Asian"}]},{"url":"http://hl7.org/fhir/us/core/StructureDefinition/us-core-ethnicity","extension":[{"url":"ombCategory","valueCoding":{"system":"urn:oid:2.16.840.1.113883.6.238","code":"2135-2","display":"Hispanic or Latino"}},{"url":"text","valueString":"Hispanic or Latino"}]}],"identifier":[{"system":"http://hospital.smarthealthit.org","value":"999999995"}],"name":[{"family":"DENEXPass","given":["PregnancyDuringMP"]}],"gender":"female","birthDate":"2006-12-31"},"request":{"method":"PUT","url":"Patient/398e8703-6704-4c75-9887-41117761d2c7"}},{"fullUrl":"https://madie.cms.gov/Encounter/Encounter-3","resource":{"resourceType":"Encounter","id":"8975106c-0f19-4664-9d7f-cae19de8304f","meta":{"profile":["http://hl7.org/fhir/us/qicore/StructureDefinition/qicore-encounter"]},"status":"finished","class":{"system":"http://terminology.hl7.org/CodeSystem/v3-ActCode","code":"AMB","display":"ambulatory"},"type":[{"coding":[{"system":"http://snomed.info/sct","code":"3391000175108","display":"Office visit for pediatric care and assessment (procedure)"}]}],"subject":{"reference":"Patient/398e8703-6704-4c75-9887-41117761d2c7"},"period":{"start":"2025-01-01T00:00:00.000Z","end":"2025-01-01T01:00:00.000Z"}},"request":{"method":"PUT","url":"Encounter/8975106c-0f19-4664-9d7f-cae19de8304f"}},{"fullUrl":"https://madie.cms.gov/Condition/Condition-3-0","resource":{"resourceType":"Condition","id":"80a13cb8-4f24-4536-98da-398a4293c413","meta":{"profile":["http://hl7.org/fhir/us/qicore/StructureDefinition/qicore-condition"]},"clinicalStatus":{"coding":[{"system":"http://terminology.hl7.org/CodeSystem/condition-clinical","code":"active"}]},"category":[{"coding":[{"system":"http://terminology.hl7.org/CodeSystem/condition-category","code":"problem-list-item","display":"Problem List Item"}]}],"code":{"coding":[{"system":"http://snomed.info/sct","code":"371125006","display":"Labile essential hypertension (disorder)"}]},"subject":{"reference":"Patient/398e8703-6704-4c75-9887-41117761d2c7"},"onsetDateTime":"2025-06-30T23:59:59.000Z"},"request":{"method":"PUT","url":"Condition/80a13cb8-4f24-4536-98da-398a4293c413"}},{"fullUrl":"https://madie.cms.gov/Condition/Condition-3-1","resource":{"resourceType":"Condition","id":"c27d5f0b-be72-4748-9964-108e43098828","meta":{"profile":["http://hl7.org/fhir/us/qicore/StructureDefinition/qicore-condition"]},"clinicalStatus":{"coding":[{"system":"http://terminology.hl7.org/CodeSystem/condition-clinical","code":"active"}]},"category":[{"coding":[{"system":"http://terminology.hl7.org/CodeSystem/condition-category","code":"problem-list-item","display":"Problem List Item"}]}],"code":{"coding":[{"system":"http://snomed.info/sct","code":"10231000132102","display":"In-vitro fertilization pregnancy (finding)"}]},"subject":{"reference":"Patient/398e8703-6704-4c75-9887-41117761d2c7"},"onsetDateTime":"2025-06-30T23:59:59.000Z"},"request":{"method":"PUT","url":"Condition/c27d5f0b-be72-4748-9964-108e43098828"}},{"fullUrl":"https://madie.cms.gov/MeasureReport/ea3082d8-49a6-4f25-8223-d16e0055be5e","resource":{"resourceType":"MeasureReport","id":"ea3082d8-49a6-4f25-8223-d16e0055be5e","meta":{"profile":["http://hl7.org/fhir/us/cqfmeasures/StructureDefinition/test-case-cqfm"]},"contained":[{"resourceType":"Parameters","id":"59ea1aab-41a9-4725-b2cf-7aa48aae07be-parameters","parameter":[{"name":"subject","valueString":"398e8703-6704-4c75-9887-41117761d2c7"}]}],"extension":[{"url":"http://hl7.org/fhir/us/cqfmeasures/StructureDefinition/cqfm-inputParameters","valueReference":{"reference":"#59ea1aab-41a9-4725-b2cf-7aa48aae07be-parameters"}},{"url":"http://hl7.org/fhir/us/cqfmeasures/StructureDefinition/cqfm-testCaseDescription","valueMarkdown":"Pregnancy starts 6/30"}],"modifierExtension":[{"url":"http://hl7.org/fhir/us/cqfmeasures/StructureDefinition/cqfm-isTestCase","valueBoolean":true}],"status":"complete","type":"individual","measure":"https://madie.cms.gov/Measure/ControllingHighBloodPressureFHIR","period":{"start":"2025-01-01","end":"2025-12-31"},"group":[{"population":[{"code":{"coding":[{"system":"http://terminology.hl7.org/CodeSystem/measure-population","code":"initial-population","display":"Initial Population"}]},"count":1},{"code":{"coding":[{"system":"http://terminology.hl7.org/CodeSystem/measure-population","code":"denominator","display":"Denominator"}]},"count":1},{"code":{"coding":[{"system":"http://terminology.hl7.org/CodeSystem/measure-population","code":"denominator-exclusion","display":"Denominator Exclusion"}]},"count":1},{"code":{"coding":[{"system":"http://terminology.hl7.org/CodeSystem/measure-population","code":"numerator","display":"Numerator"}]},"count":0}]}]},"request":{"method":"PUT","url":"MeasureReport/ea3082d8-49a6-4f25-8223-d16e0055be5e"}}]}