{
  "resourceType": "Bundle",
  "id": "t1f044ef3e654daa2659",
  "type": "transaction",
  "entry": [ {
    "fullUrl": "https://madie.cms.gov/Patient/3b5b402d-def1-4110-b667-03ff6f4c859a",
    "resource": {
      "resourceType": "Patient",
      "id": "3b5b402d-def1-4110-b667-03ff6f4c859a",
      "meta": {
        "profile": [ "http://hl7.org/fhir/us/qicore/StructureDefinition/qicore-patient" ]
      },
      "extension": [ {
        "url": "http://hl7.org/fhir/us/core/StructureDefinition/us-core-race",
        "extension": [ {
          "url": "ombCategory",
          "valueCoding": {
            "system": "urn:oid:2.16.840.1.113883.6.238",
            "code": "1002-5",
            "display": "American Indian or Alaska Native",
            "userSelected": true
          }
        }, {
          "url": "text",
          "valueString": "American Indian or Alaska Native"
        } ]
      }, {
        "url": "http://hl7.org/fhir/us/core/StructureDefinition/us-core-ethnicity",
        "extension": [ {
          "url": "ombCategory",
          "valueCoding": {
            "system": "urn:oid:2.16.840.1.113883.6.238",
            "code": "2135-2",
            "display": "Hispanic or Latino",
            "userSelected": true
          }
        }, {
          "url": "text",
          "valueString": "Hispanic or Latino"
        } ]
      } ],
      "identifier": [ {
        "type": {
          "coding": [ {
            "system": "http://terminology.hl7.org/CodeSystem/v2-0203",
            "code": "MR"
          } ]
        },
        "system": "https://bonnie-fhir.healthit.gov/",
        "value": "35f451ad-575e-48e8-a82f-6ac3195ef637"
      } ],
      "name": [ {
        "family": "DENEXCL11FAIL",
        "given": [ "HospiceDiagnosisEndsBeforeED" ]
      } ],
      "gender": "male",
      "birthDate": "1988-10-15"
    },
    "request": {
      "method": "PUT",
      "url": "Patient/3b5b402d-def1-4110-b667-03ff6f4c859a"
    }
  }, {
    "fullUrl": "https://madie.cms.gov/Encounter/bfddd7b8-19ea-4bb5-b44f-0a7a5564ab06",
    "resource": {
      "resourceType": "Encounter",
      "id": "bfddd7b8-19ea-4bb5-b44f-0a7a5564ab06",
      "meta": {
        "profile": [ "http://hl7.org/fhir/us/qicore/StructureDefinition/qicore-encounter" ]
      },
      "status": "finished",
      "class": {
        "system": "http://terminology.hl7.org/CodeSystem/v3-ActCode",
        "code": "EMER",
        "display": "emergency",
        "userSelected": true
      },
      "type": [ {
        "coding": [ {
          "system": "http://snomed.info/sct",
          "version": "2020-09",
          "code": "4525004",
          "display": "Emergency department patient visit",
          "userSelected": true
        } ]
      } ],
      "subject": {
        "reference": "Patient/3b5b402d-def1-4110-b667-03ff6f4c859a"
      },
      "period": {
        "start": "2026-10-09T05:00:00.000+00:00",
        "end": "2026-10-13T17:00:00.000+00:00"
      },
      "reasonCode": [ {
        "coding": [ {
          "system": "http://hl7.org/fhir/sid/icd-10-cm",
          "code": "I21.21",
          "display": "ST elevation (STEMI) myocardial infarction involving left circumflex coronary artery",
          "userSelected": true
        } ]
      } ]
    },
    "request": {
      "method": "PUT",
      "url": "Encounter/bfddd7b8-19ea-4bb5-b44f-0a7a5564ab06"
    }
  }, {
    "fullUrl": "https://madie.cms.gov/Condition/8c47d693-3385-4e72-845a-023020ed3bda",
    "resource": {
      "resourceType": "Condition",
      "id": "8c47d693-3385-4e72-845a-023020ed3bda",
      "meta": {
        "profile": [ "http://hl7.org/fhir/us/qicore/StructureDefinition/qicore-condition" ]
      },
      "clinicalStatus": {
        "coding": [ {
          "system": "http://terminology.hl7.org/CodeSystem/condition-clinical",
          "code": "inactive",
          "display": "Inactive",
          "userSelected": true
        } ]
      },
      "category": [ {
        "coding": [ {
          "system": "http://terminology.hl7.org/CodeSystem/condition-category",
          "code": "problem-list-item",
          "display": "Problem List Item",
          "userSelected": true
        } ]
      } ],
      "code": {
        "coding": [ {
          "system": "http://snomed.info/sct",
          "code": "170936009",
          "display": "Shared care - hospice and general practitioner (finding)",
          "userSelected": true
        } ]
      },
      "subject": {
        "reference": "Patient/3b5b402d-def1-4110-b667-03ff6f4c859a"
      },
      "onsetDateTime": "2026-08-03T12:00:00.000+00:00",
      "abatementDateTime": "2026-08-04T02:00:00.000+00:00"
    },
    "request": {
      "method": "PUT",
      "url": "Condition/8c47d693-3385-4e72-845a-023020ed3bda"
    }
  }, {
    "fullUrl": "https://madie.cms.gov/MeasureReport/b6926cb9-45e2-44b8-88b2-fc9e69dc2b47",
    "resource": {
      "resourceType": "MeasureReport",
      "id": "b6926cb9-45e2-44b8-88b2-fc9e69dc2b47",
      "meta": {
        "profile": [ "http://hl7.org/fhir/us/cqfmeasures/StructureDefinition/test-case-cqfm" ]
      },
      "contained": [ {
        "resourceType": "Parameters",
        "id": "af9af2d1-4382-4707-b327-98b8c99a5ae7-parameters",
        "parameter": [ {
          "name": "subject",
          "valueString": "3b5b402d-def1-4110-b667-03ff6f4c859a"
        } ]
      } ],
      "extension": [ {
        "url": "http://hl7.org/fhir/us/cqfmeasures/StructureDefinition/cqfm-inputParameters",
        "valueReference": {
          "reference": "#af9af2d1-4382-4707-b327-98b8c99a5ae7-parameters"
        }
      }, {
        "url": "http://hl7.org/fhir/us/cqfmeasures/StructureDefinition/cqfm-testCaseDescription",
        "valueMarkdown": "Patients has hospice diagnosis that ends before ED"
      } ],
      "modifierExtension": [ {
        "url": "http://hl7.org/fhir/us/cqfmeasures/StructureDefinition/cqfm-isTestCase",
        "valueBoolean": true
      } ],
      "status": "complete",
      "type": "individual",
      "measure": "https://madie.cms.gov/Measure/CMS996FHIRAptTxforSTEMI",
      "period": {
        "start": "2026-01-01",
        "end": "2026-12-31"
      },
      "group": [ {
        "population": [ {
          "code": {
            "coding": [ {
              "system": "http://terminology.hl7.org/CodeSystem/measure-population",
              "code": "initial-population",
              "display": "Initial Population"
            } ]
          },
          "count": 1
        }, {
          "code": {
            "coding": [ {
              "system": "http://terminology.hl7.org/CodeSystem/measure-population",
              "code": "denominator",
              "display": "Denominator"
            } ]
          },
          "count": 1
        }, {
          "code": {
            "coding": [ {
              "system": "http://terminology.hl7.org/CodeSystem/measure-population",
              "code": "denominator-exclusion",
              "display": "Denominator Exclusion"
            } ]
          },
          "count": 0
        }, {
          "code": {
            "coding": [ {
              "system": "http://terminology.hl7.org/CodeSystem/measure-population",
              "code": "numerator",
              "display": "Numerator"
            } ]
          },
          "count": 0
        }, {
          "code": {
            "coding": [ {
              "system": "http://terminology.hl7.org/CodeSystem/measure-population",
              "code": "denominator-exception",
              "display": "Denominator Exception"
            } ]
          },
          "count": 0
        } ]
      } ],
      "evaluatedResource": [ {
        "reference": "Patient/3b5b402d-def1-4110-b667-03ff6f4c859a"
      }, {
        "reference": "Encounter/bfddd7b8-19ea-4bb5-b44f-0a7a5564ab06"
      }, {
        "reference": "Condition/8c47d693-3385-4e72-845a-023020ed3bda"
      } ]
    },
    "request": {
      "method": "PUT",
      "url": "MeasureReport/b6926cb9-45e2-44b8-88b2-fc9e69dc2b47"
    }
  } ]
}