{
  "resourceType": "Bundle",
  "id": "64270cbea7ffa60ebe02488e",
  "type": "transaction",
  "entry": [ {
    "fullUrl": "Patient/5cc2e1b7-00df-4a7d-b549-d3d09be0e037",
    "resource": {
      "resourceType": "Patient",
      "id": "5cc2e1b7-00df-4a7d-b549-d3d09be0e037",
      "meta": {
        "profile": [ "http://hl7.org/fhir/us/qicore/StructureDefinition/qicore-patient" ]
      },
      "extension": [ {
        "url": "http://hl7.org/fhir/us/core/StructureDefinition/us-core-race",
        "extension": [ {
          "url": "ombCategory",
          "valueCoding": {
            "system": "urn:oid:2.16.840.1.113883.6.238",
            "code": "2106-3",
            "display": "White",
            "userSelected": true
          }
        }, {
          "url": "text",
          "valueString": "White"
        } ]
      }, {
        "url": "http://hl7.org/fhir/us/core/StructureDefinition/us-core-ethnicity",
        "extension": [ {
          "url": "ombCategory",
          "valueCoding": {
            "system": "urn:oid:2.16.840.1.113883.6.238",
            "code": "2135-2",
            "display": "Hispanic or Latino",
            "userSelected": true
          }
        }, {
          "url": "text",
          "valueString": "Hispanic or Latino"
        } ]
      } ],
      "identifier": [ {
        "type": {
          "coding": [ {
            "system": "http://terminology.hl7.org/CodeSystem/v2-0203",
            "code": "MR"
          } ]
        },
        "system": "https://goodhealth.healthit.gov/",
        "value": "64270cbea7ffa60ebe02488e"
      } ],
      "name": [ {
        "family": "IPFail",
        "given": [ "DementiaDxUnconfirmed" ]
      } ],
      "gender": "male",
      "birthDate": "1948-06-02"
    },
    "request": {
      "method": "PUT",
      "url": "Patient/5cc2e1b7-00df-4a7d-b549-d3d09be0e037"
    }
  }, {
    "fullUrl": "Condition/C-2300003203",
    "resource": {
      "resourceType": "Condition",
      "id": "C-2300003203",
      "meta": {
        "profile": [ "http://hl7.org/fhir/us/qicore/StructureDefinition/qicore-condition" ]
      },
      "clinicalStatus": {
        "coding": [ {
          "system": "http://terminology.hl7.org/CodeSystem/condition-clinical",
          "code": "active",
          "display": "Active",
          "userSelected": true
        } ]
      },
      "verificationStatus": {
        "coding": [ {
          "system": "http://terminology.hl7.org/CodeSystem/condition-ver-status",
          "code": "unconfirmed",
          "display": "Unconfirmed",
          "userSelected": true
        } ]
      },
      "category": [ {
        "coding": [ {
          "system": "http://terminology.hl7.org/CodeSystem/condition-category",
          "code": "encounter-diagnosis",
          "display": "Encounter Diagnosis",
          "userSelected": true
        } ]
      } ],
      "code": {
        "coding": [ {
          "system": "http://snomed.info/sct",
          "version": "http://snomed.info/sct/731000124108/version/20230301",
          "code": "191463004",
          "display": "Uncomplicated arteriosclerotic dementia (disorder)"
        } ]
      },
      "subject": {
        "reference": "Patient/69e641df-d0f6-47b7-82e3-7fd6251554d5"
      },
      "onsetPeriod": {
        "start": "2023-01-15T08:00:00.000+00:00"
      }
    },
    "request": {
      "method": "PUT",
      "url": "Condition/C-2300003203"
    }
  }, {
    "fullUrl": "Encounter/E-2300003204",
    "resource": {
      "resourceType": "Encounter",
      "id": "E-2300003204",
      "meta": {
        "profile": [ "http://hl7.org/fhir/us/qicore/StructureDefinition/qicore-encounter" ]
      },
      "status": "finished",
      "class": {
        "system": "http://terminology.hl7.org/CodeSystem/v3-ActCode",
        "code": "AMB",
        "display": "ambulatory",
        "userSelected": true
      },
      "type": [ {
        "coding": [ {
          "system": "http://www.ama-assn.org/go/cpt",
          "version": "2023",
          "code": "99212",
          "userSelected": true
        } ]
      } ],
      "subject": {
        "reference": "Patient/69e641df-d0f6-47b7-82e3-7fd6251554d5"
      },
      "period": {
        "start": "2025-03-02T08:00:00.000+00:00",
        "end": "2025-03-02T08:35:00.000+00:00"
      }
    },
    "request": {
      "method": "PUT",
      "url": "Encounter/E-2300003204"
    }
  }, {
    "fullUrl": "Encounter/E-23000032017",
    "resource": {
      "resourceType": "Encounter",
      "id": "E-23000032017",
      "meta": {
        "profile": [ "http://hl7.org/fhir/us/qicore/StructureDefinition/qicore-encounter" ]
      },
      "status": "finished",
      "class": {
        "system": "http://terminology.hl7.org/CodeSystem/v3-ActCode",
        "code": "AMB",
        "display": "ambulatory",
        "userSelected": true
      },
      "type": [ {
        "coding": [ {
          "system": "http://snomed.info/sct",
          "version": "http://snomed.info/sct/731000124108/version/20230301",
          "code": "77406008",
          "display": "Confirmatory medical consultation (procedure)"
        } ]
      } ],
      "subject": {
        "reference": "Patient/69e641df-d0f6-47b7-82e3-7fd6251554d5"
      },
      "period": {
        "start": "2025-08-15T08:00:00.000+00:00",
        "end": "2025-08-15T08:35:00.000+00:00"
      }
    },
    "request": {
      "method": "PUT",
      "url": "Encounter/E-23000032017"
    }
  }, {
    "fullUrl": "MeasureReport/4b18fae6-e614-4d2c-a2a4-3373c9352ef4",
    "resource": {
      "resourceType": "MeasureReport",
      "id": "4b18fae6-e614-4d2c-a2a4-3373c9352ef4",
      "meta": {
        "profile": [ "http://hl7.org/fhir/us/cqfmeasures/StructureDefinition/test-case-cqfm" ]
      },
      "contained": [ {
        "resourceType": "Parameters",
        "id": "cc2153c0-11cf-4764-b17d-e57f98a7ea33-parameters",
        "parameter": [ {
          "name": "subject",
          "valueString": "5cc2e1b7-00df-4a7d-b549-d3d09be0e037"
        } ]
      } ],
      "extension": [ {
        "url": "http://hl7.org/fhir/us/cqfmeasures/StructureDefinition/cqfm-inputParameters",
        "valueReference": {
          "reference": "#cc2153c0-11cf-4764-b17d-e57f98a7ea33-parameters"
        }
      }, {
        "url": "http://hl7.org/fhir/us/cqfmeasures/StructureDefinition/cqfm-testCaseDescription",
        "valueMarkdown": "Dementia Diagnosis verification status is unconfirmed and ineligible for Initial Population/Denominator"
      } ],
      "modifierExtension": [ {
        "url": "http://hl7.org/fhir/us/cqfmeasures/StructureDefinition/cqfm-isTestCase",
        "valueBoolean": true
      } ],
      "status": "complete",
      "type": "individual",
      "measure": "Measure/DementiaCognitiveAssessmentFHIR",
      "period": {
        "start": "2025-01-01",
        "end": "2025-12-31"
      },
      "group": [ {
        "population": [ {
          "code": {
            "coding": [ {
              "system": "http://terminology.hl7.org/CodeSystem/measure-population",
              "code": "initial-population",
              "display": "Initial Population"
            } ]
          },
          "count": 0
        }, {
          "code": {
            "coding": [ {
              "system": "http://terminology.hl7.org/CodeSystem/measure-population",
              "code": "denominator",
              "display": "Denominator"
            } ]
          },
          "count": 0
        }, {
          "code": {
            "coding": [ {
              "system": "http://terminology.hl7.org/CodeSystem/measure-population",
              "code": "numerator",
              "display": "Numerator"
            } ]
          },
          "count": 0
        }, {
          "code": {
            "coding": [ {
              "system": "http://terminology.hl7.org/CodeSystem/measure-population",
              "code": "denominator-exception",
              "display": "Denominator Exception"
            } ]
          },
          "count": 0
        } ]
      } ],
      "evaluatedResource": [ {
        "reference": "Patient/5cc2e1b7-00df-4a7d-b549-d3d09be0e037"
      }, {
        "reference": "Condition/C-2300003203"
      }, {
        "reference": "Encounter/E-2300003204"
      }, {
        "reference": "Encounter/E-23000032017"
      } ]
    },
    "request": {
      "method": "PUT",
      "url": "MeasureReport/4b18fae6-e614-4d2c-a2a4-3373c9352ef4"
    }
  } ]
}
