{
  "resourceType": "Bundle",
  "id": "64270cbea7ffa60ebe02488f",
  "type": "transaction",
  "entry": [ {
    "fullUrl": "Patient/388a45ee-0e02-4758-b0c8-a78aed07a19b",
    "resource": {
      "resourceType": "Patient",
      "id": "388a45ee-0e02-4758-b0c8-a78aed07a19b",
      "meta": {
        "profile": [ "http://hl7.org/fhir/us/qicore/StructureDefinition/qicore-patient" ]
      },
      "extension": [ {
        "url": "http://hl7.org/fhir/us/core/StructureDefinition/us-core-race",
        "extension": [ {
          "url": "ombCategory",
          "valueCoding": {
            "system": "urn:oid:2.16.840.1.113883.6.238",
            "code": "2106-3",
            "display": "White",
            "userSelected": true
          }
        }, {
          "url": "text",
          "valueString": "White"
        } ]
      }, {
        "url": "http://hl7.org/fhir/us/core/StructureDefinition/us-core-ethnicity",
        "extension": [ {
          "url": "ombCategory",
          "valueCoding": {
            "system": "urn:oid:2.16.840.1.113883.6.238",
            "code": "2135-2",
            "display": "Hispanic or Latino",
            "userSelected": true
          }
        }, {
          "url": "text",
          "valueString": "Hispanic or Latino"
        } ]
      } ],
      "identifier": [ {
        "type": {
          "coding": [ {
            "system": "http://terminology.hl7.org/CodeSystem/v2-0203",
            "code": "MR"
          } ]
        },
        "system": "https://goodhealth.healthit.gov/",
        "value": "64270cbea7ffa60ebe02488f"
      } ],
      "name": [ {
        "family": "IPPass",
        "given": [ "DementiaDxOnset1MinB4EncEdge" ]
      } ],
      "gender": "male",
      "birthDate": "1968-03-02"
    },
    "request": {
      "method": "PUT",
      "url": "Patient/388a45ee-0e02-4758-b0c8-a78aed07a19b"
    }
  }, {
    "fullUrl": "Condition/C-2300003203",
    "resource": {
      "resourceType": "Condition",
      "id": "C-2300003203",
      "meta": {
        "profile": [ "http://hl7.org/fhir/us/qicore/StructureDefinition/qicore-condition" ]
      },
      "clinicalStatus": {
        "coding": [ {
          "system": "http://terminology.hl7.org/CodeSystem/condition-clinical",
          "code": "active",
          "display": "Active",
          "userSelected": true
        } ]
      },
      "verificationStatus": {
        "coding": [ {
          "system": "http://terminology.hl7.org/CodeSystem/condition-ver-status",
          "code": "confirmed",
          "display": "Confirmed",
          "userSelected": true
        } ]
      },
      "category": [ {
        "coding": [ {
          "system": "http://terminology.hl7.org/CodeSystem/condition-category",
          "code": "encounter-diagnosis",
          "display": "Encounter Diagnosis",
          "userSelected": true
        } ]
      } ],
      "code": {
        "coding": [ {
          "system": "http://snomed.info/sct",
          "version": "http://snomed.info/sct/731000124108/version/20230301",
          "code": "10532003",
          "display": "Primary degenerative dementia of the Alzheimer type, presenile onset, with depression (disorder)"
        } ]
      },
      "subject": {
        "reference": "Patient/388a45ee-0e02-4758-b0c8-a78aed07a19b"
      },
      "onsetPeriod": {
        "start": "2025-07-15T08:34:00.000+00:00"
      }
    },
    "request": {
      "method": "PUT",
      "url": "Condition/C-2300003203"
    }
  }, {
    "fullUrl": "Encounter/E-2300003204",
    "resource": {
      "resourceType": "Encounter",
      "id": "E-2300003204",
      "meta": {
        "profile": [ "http://hl7.org/fhir/us/qicore/StructureDefinition/qicore-encounter" ]
      },
      "status": "finished",
      "class": {
        "system": "http://terminology.hl7.org/CodeSystem/v3-ActCode",
        "code": "AMB",
        "display": "ambulatory",
        "userSelected": true
      },
      "type": [ {
        "coding": [ {
          "system": "http://www.ama-assn.org/go/cpt",
          "version": "2023",
          "code": "99212",
          "userSelected": true
        } ]
      } ],
      "subject": {
        "reference": "Patient/388a45ee-0e02-4758-b0c8-a78aed07a19b"
      },
      "period": {
        "start": "2025-03-02T08:00:00.000+00:00",
        "end": "2025-03-02T08:35:00.000+00:00"
      }
    },
    "request": {
      "method": "PUT",
      "url": "Encounter/E-2300003204"
    }
  }, {
    "fullUrl": "Encounter/E-23000032017",
    "resource": {
      "resourceType": "Encounter",
      "id": "E-23000032017",
      "meta": {
        "profile": [ "http://hl7.org/fhir/us/qicore/StructureDefinition/qicore-encounter" ]
      },
      "status": "finished",
      "class": {
        "system": "http://terminology.hl7.org/CodeSystem/v3-ActCode",
        "code": "AMB",
        "display": "ambulatory",
        "userSelected": true
      },
      "type": [ {
        "coding": [ {
          "system": "http://www.ama-assn.org/go/cpt",
          "version": "2023",
          "code": "90834",
          "userSelected": true
        } ]
      } ],
      "subject": {
        "reference": "Patient/388a45ee-0e02-4758-b0c8-a78aed07a19b"
      },
      "period": {
        "start": "2025-07-15T08:00:00.000+00:00",
        "end": "2025-07-15T08:35:00.000+00:00"
      }
    },
    "request": {
      "method": "PUT",
      "url": "Encounter/E-23000032017"
    }
  }, {
    "fullUrl": "MeasureReport/a7d77a60-98a2-46d1-a3a3-0d134133ed49",
    "resource": {
      "resourceType": "MeasureReport",
      "id": "a7d77a60-98a2-46d1-a3a3-0d134133ed49",
      "meta": {
        "profile": [ "http://hl7.org/fhir/us/cqfmeasures/StructureDefinition/test-case-cqfm" ]
      },
      "contained": [ {
        "resourceType": "Parameters",
        "id": "465f0547-aec8-4934-9346-97331a4ba042-parameters",
        "parameter": [ {
          "name": "subject",
          "valueString": "388a45ee-0e02-4758-b0c8-a78aed07a19b"
        } ]
      } ],
      "extension": [ {
        "url": "http://hl7.org/fhir/us/cqfmeasures/StructureDefinition/cqfm-inputParameters",
        "valueReference": {
          "reference": "#465f0547-aec8-4934-9346-97331a4ba042-parameters"
        }
      }, {
        "url": "http://hl7.org/fhir/us/cqfmeasures/StructureDefinition/cqfm-testCaseDescription",
        "valueMarkdown": "Patient with two qualifying Encounter visits (Psych Visit Psychotherapy; Office Visit) and with Dementia Diagnosis onset 1 minute before end of encounter"
      } ],
      "modifierExtension": [ {
        "url": "http://hl7.org/fhir/us/cqfmeasures/StructureDefinition/cqfm-isTestCase",
        "valueBoolean": true
      } ],
      "status": "complete",
      "type": "individual",
      "measure": "Measure/DementiaCognitiveAssessmentFHIR",
      "period": {
        "start": "2025-01-01",
        "end": "2025-12-31"
      },
      "group": [ {
        "population": [ {
          "code": {
            "coding": [ {
              "system": "http://terminology.hl7.org/CodeSystem/measure-population",
              "code": "initial-population",
              "display": "Initial Population"
            } ]
          },
          "count": 1
        }, {
          "code": {
            "coding": [ {
              "system": "http://terminology.hl7.org/CodeSystem/measure-population",
              "code": "denominator",
              "display": "Denominator"
            } ]
          },
          "count": 1
        }, {
          "code": {
            "coding": [ {
              "system": "http://terminology.hl7.org/CodeSystem/measure-population",
              "code": "numerator",
              "display": "Numerator"
            } ]
          },
          "count": 0
        }, {
          "code": {
            "coding": [ {
              "system": "http://terminology.hl7.org/CodeSystem/measure-population",
              "code": "denominator-exception",
              "display": "Denominator Exception"
            } ]
          },
          "count": 0
        } ]
      } ],
      "evaluatedResource": [ {
        "reference": "Patient/388a45ee-0e02-4758-b0c8-a78aed07a19b"
      }, {
        "reference": "Condition/C-2300003203"
      }, {
        "reference": "Encounter/E-2300003204"
      }, {
        "reference": "Encounter/E-23000032017"
      } ]
    },
    "request": {
      "method": "PUT",
      "url": "MeasureReport/a7d77a60-98a2-46d1-a3a3-0d134133ed49"
    }
  } ]
}
