{
  "resourceType": "Bundle",
  "id": "642711b378c9438489949adc",
  "type": "transaction",
  "entry": [ {
    "fullUrl": "Patient/e9c4dd8e-bb15-4da6-b748-469255031118",
    "resource": {
      "resourceType": "Patient",
      "id": "e9c4dd8e-bb15-4da6-b748-469255031118",
      "meta": {
        "profile": [ "http://hl7.org/fhir/us/qicore/StructureDefinition/qicore-patient" ]
      },
      "extension": [ {
        "url": "http://hl7.org/fhir/us/core/StructureDefinition/us-core-race",
        "extension": [ {
          "url": "ombCategory",
          "valueCoding": {
            "system": "urn:oid:2.16.840.1.113883.6.238",
            "code": "1002-5",
            "display": "American Indian or Alaska Native",
            "userSelected": true
          }
        }, {
          "url": "text",
          "valueString": "American Indian or Alaska Native"
        } ]
      }, {
        "url": "http://hl7.org/fhir/us/core/StructureDefinition/us-core-ethnicity",
        "extension": [ {
          "url": "ombCategory",
          "valueCoding": {
            "system": "urn:oid:2.16.840.1.113883.6.238",
            "code": "2135-2",
            "display": "Hispanic or Latino",
            "userSelected": true
          }
        }, {
          "url": "text",
          "valueString": "Hispanic or Latino"
        } ]
      } ],
      "identifier": [ {
        "type": {
          "coding": [ {
            "system": "http://terminology.hl7.org/CodeSystem/v2-0203",
            "code": "MR"
          } ]
        },
        "system": "https://smart.healthit.org/",
        "value": "642711b378c9438489949adc"
      } ],
      "name": [ {
        "family": "NUMERPass",
        "given": [ "AssessmentOneMonthBeforeEnc" ]
      } ],
      "gender": "male",
      "birthDate": "1990-03-02"
    },
    "request": {
      "method": "PUT",
      "url": "Patient/e9c4dd8e-bb15-4da6-b748-469255031118"
    }
  }, {
    "fullUrl": "Condition/C-300230001",
    "resource": {
      "resourceType": "Condition",
      "id": "C-300230001",
      "meta": {
        "profile": [ "http://hl7.org/fhir/us/qicore/StructureDefinition/qicore-condition" ]
      },
      "clinicalStatus": {
        "coding": [ {
          "system": "http://terminology.hl7.org/CodeSystem/condition-clinical",
          "code": "active",
          "display": "Active",
          "userSelected": true
        } ]
      },
      "verificationStatus": {
        "coding": [ {
          "system": "http://terminology.hl7.org/CodeSystem/condition-ver-status",
          "code": "confirmed",
          "display": "Confirmed",
          "userSelected": true
        } ]
      },
      "category": [ {
        "coding": [ {
          "system": "http://terminology.hl7.org/CodeSystem/condition-category",
          "code": "encounter-diagnosis",
          "display": "Encounter Diagnosis",
          "userSelected": true
        } ]
      } ],
      "code": {
        "coding": [ {
          "system": "http://hl7.org/fhir/sid/icd-10-cm",
          "version": "2023",
          "code": "G31.83",
          "userSelected": true
        } ]
      },
      "subject": {
        "reference": "Patient/e9c4dd8e-bb15-4da6-b748-469255031118"
      },
      "onsetPeriod": {
        "start": "2022-05-01T08:00:00.000+00:00"
      }
    },
    "request": {
      "method": "PUT",
      "url": "Condition/C-300230001"
    }
  }, {
    "fullUrl": "Encounter/C-300230002",
    "resource": {
      "resourceType": "Encounter",
      "id": "C-300230002",
      "meta": {
        "profile": [ "http://hl7.org/fhir/us/qicore/StructureDefinition/qicore-encounter" ]
      },
      "status": "finished",
      "class": {
        "system": "http://terminology.hl7.org/CodeSystem/v3-ActCode",
        "code": "AMB",
        "display": "ambulatory",
        "userSelected": true
      },
      "type": [ {
        "coding": [ {
          "system": "http://www.ama-assn.org/go/cpt",
          "code": "99212",
          "userSelected": true
        } ]
      } ],
      "subject": {
        "reference": "Patient/e9c4dd8e-bb15-4da6-b748-469255031118"
      },
      "period": {
        "start": "2025-03-31T08:00:00.000+00:00",
        "end": "2025-03-31T08:35:00.000+00:00"
      }
    },
    "request": {
      "method": "PUT",
      "url": "Encounter/C-300230002"
    }
  }, {
    "fullUrl": "Encounter/E-300230003",
    "resource": {
      "resourceType": "Encounter",
      "id": "E-300230003",
      "meta": {
        "profile": [ "http://hl7.org/fhir/us/qicore/StructureDefinition/qicore-encounter" ]
      },
      "status": "finished",
      "class": {
        "system": "http://terminology.hl7.org/CodeSystem/v3-ActCode",
        "code": "AMB",
        "display": "ambulatory",
        "userSelected": true
      },
      "type": [ {
        "coding": [ {
          "system": "http://snomed.info/sct",
          "version": "http://snomed.info/sct/731000124108/version/202303",
          "code": "185463005",
          "display": "Visit out of hours (procedure)",
          "userSelected": true
        } ]
      } ],
      "subject": {
        "reference": "Patient/e9c4dd8e-bb15-4da6-b748-469255031118"
      },
      "period": {
        "start": "2025-08-31T08:00:00.000+00:00",
        "end": "2025-08-31T08:35:00.000+00:00"
      }
    },
    "request": {
      "method": "PUT",
      "url": "Encounter/E-300230003"
    }
  }, {
    "fullUrl": "Observation/P-300230004",
    "resource": {
      "resourceType": "Observation",
      "id": "P-300230004",
      "meta": {
        "profile": [ "http://hl7.org/fhir/us/qicore/StructureDefinition/qicore-observation" ]
      },
      "status": "final",
      "category": [ {
        "coding": [ {
          "system": "http://terminology.hl7.org/CodeSystem/observation-category",
          "code": "survey",
          "display": "Survey",
          "userSelected": true
        } ]
      } ],
      "code": {
        "coding": [ {
          "system": "http://loinc.org",
          "version": "2.73",
          "code": "58151-2",
          "display": "Prior assessment Brief Interview for Mental Status (BIMS) summary score [MDSv3]",
          "userSelected": true
        } ]
      },
      "subject": {
        "reference": "Patient/e9c4dd8e-bb15-4da6-b748-469255031118"
      },
      "effectiveDateTime": "2025-03-31T08:03:00.000+00:00",
      "issued": "2025-03-31T08:03:00.000+00:00",
      "valueInteger": 26
    },
    "request": {
      "method": "PUT",
      "url": "Observation/P-300230004"
    }
  }, {
    "fullUrl": "Coverage/C-6846813516441",
    "resource": {
      "resourceType": "Coverage",
      "id": "C-6846813516441",
      "meta": {
        "profile": [ "http://hl7.org/fhir/us/qicore/StructureDefinition/qicore-coverage" ]
      },
      "identifier": [ {
        "system": "http://benefitsinc.com/certificate",
        "value": "12345"
      } ],
      "status": "active",
      "type": {
        "coding": [ {
          "system": "https://nahdo.org/sopt",
          "version": "9.2",
          "code": "59",
          "display": "Other Private Insurance"
        } ]
      },
      "beneficiary": {
        "reference": "Patient/e9c4dd8e-bb15-4da6-b748-469255031118"
      },
      "dependent": "0",
      "relationship": {
        "coding": [ {
          "system": "http://terminology.hl7.org/CodeSystem/subscriber-relationship",
          "code": "self"
        } ]
      },
      "period": {
        "start": "2015-05-23",
        "end": "2025-05-23"
      },
      "payor": [ {
        "reference": "Organization/O-4654531645616"
      } ],
      "order": 9
    },
    "request": {
      "method": "PUT",
      "url": "Coverage/C-6846813516441"
    }
  }, {
    "fullUrl": "Organization/O-4654531645616",
    "resource": {
      "resourceType": "Organization",
      "id": "O-4654531645616",
      "meta": {
        "profile": [ "http://hl7.org/fhir/us/qicore/StructureDefinition/qicore-organization" ]
      },
      "identifier": [ {
        "use": "temp",
        "system": "http://terminology.hl7.org/NamingSystem/USEIN",
        "value": "48915164351354"
      } ],
      "active": true,
      "type": [ {
        "coding": [ {
          "system": "http://terminology.hl7.org/CodeSystem/organization-type",
          "code": "team",
          "display": "Organizational team"
        } ]
      } ],
      "name": "Good Healthcare, LLC",
      "telecom": [ {
        "system": "phone",
        "value": "(+1) 901-683-7777"
      }, {
        "system": "fax",
        "value": "(+1) 901-683-6622"
      }, {
        "system": "email",
        "value": "BetterYourHealth@GoodHealthcare.com"
      } ],
      "address": [ {
        "line": [ "3651 Wentrow Blvd, Suite 227" ],
        "city": "Germantown",
        "state": "TN",
        "postalCode": "38138",
        "country": "USA"
      } ]
    },
    "request": {
      "method": "PUT",
      "url": "Organization/O-4654531645616"
    }
  }, {
    "fullUrl": "MeasureReport/6c00fea4-e268-49d0-a849-d00d6bedfadf",
    "resource": {
      "resourceType": "MeasureReport",
      "id": "6c00fea4-e268-49d0-a849-d00d6bedfadf",
      "meta": {
        "profile": [ "http://hl7.org/fhir/us/cqfmeasures/StructureDefinition/test-case-cqfm" ]
      },
      "contained": [ {
        "resourceType": "Parameters",
        "id": "583e2365-ad8e-4810-9f9c-6b8c30ae81d1-parameters",
        "parameter": [ {
          "name": "subject",
          "valueString": "e9c4dd8e-bb15-4da6-b748-469255031118"
        } ]
      } ],
      "extension": [ {
        "url": "http://hl7.org/fhir/us/cqfmeasures/StructureDefinition/cqfm-inputParameters",
        "valueReference": {
          "reference": "#583e2365-ad8e-4810-9f9c-6b8c30ae81d1-parameters"
        }
      }, {
        "url": "http://hl7.org/fhir/us/cqfmeasures/StructureDefinition/cqfm-testCaseDescription",
        "valueMarkdown": "Patient has two qualifying visits, dementia diagnosis and Cognition Assesment  performed one month before Qualifying Encounter period."
      } ],
      "modifierExtension": [ {
        "url": "http://hl7.org/fhir/us/cqfmeasures/StructureDefinition/cqfm-isTestCase",
        "valueBoolean": true
      } ],
      "status": "complete",
      "type": "individual",
      "measure": "Measure/DementiaCognitiveAssessmentFHIR",
      "period": {
        "start": "2025-01-01",
        "end": "2025-12-31"
      },
      "group": [ {
        "population": [ {
          "code": {
            "coding": [ {
              "system": "http://terminology.hl7.org/CodeSystem/measure-population",
              "code": "initial-population",
              "display": "Initial Population"
            } ]
          },
          "count": 1
        }, {
          "code": {
            "coding": [ {
              "system": "http://terminology.hl7.org/CodeSystem/measure-population",
              "code": "denominator",
              "display": "Denominator"
            } ]
          },
          "count": 1
        }, {
          "code": {
            "coding": [ {
              "system": "http://terminology.hl7.org/CodeSystem/measure-population",
              "code": "numerator",
              "display": "Numerator"
            } ]
          },
          "count": 1
        }, {
          "code": {
            "coding": [ {
              "system": "http://terminology.hl7.org/CodeSystem/measure-population",
              "code": "denominator-exception",
              "display": "Denominator Exception"
            } ]
          },
          "count": 0
        } ]
      } ],
      "evaluatedResource": [ {
        "reference": "Patient/e9c4dd8e-bb15-4da6-b748-469255031118"
      }, {
        "reference": "Condition/C-300230001"
      }, {
        "reference": "Encounter/C-300230002"
      }, {
        "reference": "Encounter/E-300230003"
      }, {
        "reference": "Observation/P-300230004"
      }, {
        "reference": "Coverage/C-6846813516441"
      }, {
        "reference": "Organization/O-4654531645616"
      } ]
    },
    "request": {
      "method": "PUT",
      "url": "MeasureReport/6c00fea4-e268-49d0-a849-d00d6bedfadf"
    }
  } ]
}
