{
  "resourceType": "Bundle",
  "id": "2300003201",
  "type": "transaction",
  "entry": [ {
    "fullUrl": "Patient/a1da01d1-4abb-47d1-8320-6e3a75aed241",
    "resource": {
      "resourceType": "Patient",
      "id": "a1da01d1-4abb-47d1-8320-6e3a75aed241",
      "meta": {
        "profile": [ "http://hl7.org/fhir/us/qicore/StructureDefinition/qicore-patient" ]
      },
      "extension": [ {
        "url": "http://hl7.org/fhir/us/core/StructureDefinition/us-core-race",
        "extension": [ {
          "url": "ombCategory",
          "valueCoding": {
            "system": "urn:oid:2.16.840.1.113883.6.238",
            "code": "2106-3",
            "display": "White",
            "userSelected": true
          }
        }, {
          "url": "text",
          "valueString": "White"
        } ]
      }, {
        "url": "http://hl7.org/fhir/us/core/StructureDefinition/us-core-ethnicity",
        "extension": [ {
          "url": "ombCategory",
          "valueCoding": {
            "system": "urn:oid:2.16.840.1.113883.6.238",
            "code": "2135-2",
            "display": "Hispanic or Latino",
            "userSelected": true
          }
        }, {
          "url": "text",
          "valueString": "Hispanic or Latino"
        } ]
      } ],
      "identifier": [ {
        "type": {
          "coding": [ {
            "system": "http://terminology.hl7.org/CodeSystem/v2-0203",
            "code": "MR"
          } ]
        },
        "system": "https://bonnie-fhir.healthit.gov/",
        "value": "2300003201"
      } ],
      "name": [ {
        "family": "IPFail",
        "given": [ "NoDementiaDX" ]
      } ],
      "gender": "female",
      "birthDate": "1950-02-26"
    },
    "request": {
      "method": "PUT",
      "url": "Patient/a1da01d1-4abb-47d1-8320-6e3a75aed241"
    }
  }, {
    "fullUrl": "Encounter/C-2300003203",
    "resource": {
      "resourceType": "Encounter",
      "id": "C-2300003203",
      "meta": {
        "profile": [ "http://hl7.org/fhir/us/qicore/StructureDefinition/qicore-encounter" ]
      },
      "status": "finished",
      "class": {
        "system": "http://terminology.hl7.org/CodeSystem/v3-ActCode",
        "code": "AMB",
        "display": "ambulatory"
      },
      "type": [ {
        "coding": [ {
          "system": "http://snomed.info/sct",
          "version": "http://snomed.info/sct/731000124108/version/202303",
          "code": "10197000",
          "display": "Psychiatric interview and evaluation (procedure)",
          "userSelected": true
        } ]
      } ],
      "subject": {
        "reference": "Patient/a1da01d1-4abb-47d1-8320-6e3a75aed241"
      },
      "period": {
        "start": "2025-01-02T08:00:00.000+00:00",
        "end": "2025-01-02T08:15:00.000+00:00"
      }
    },
    "request": {
      "method": "PUT",
      "url": "Encounter/C-2300003203"
    }
  }, {
    "fullUrl": "Encounter/E-2300003204",
    "resource": {
      "resourceType": "Encounter",
      "id": "E-2300003204",
      "meta": {
        "profile": [ "http://hl7.org/fhir/us/qicore/StructureDefinition/qicore-encounter" ]
      },
      "status": "finished",
      "class": {
        "system": "http://terminology.hl7.org/CodeSystem/v3-ActCode",
        "code": "AMB",
        "display": "ambulatory"
      },
      "type": [ {
        "coding": [ {
          "system": "http://snomed.info/sct",
          "version": "http://snomed.info/sct/731000124108/version/202303",
          "code": "185460008",
          "display": "Home visit request by patient (procedure)",
          "userSelected": true
        } ]
      } ],
      "subject": {
        "reference": "Patient/a1da01d1-4abb-47d1-8320-6e3a75aed241"
      },
      "period": {
        "start": "2025-06-06T08:00:00.000+00:00",
        "end": "2025-06-06T08:15:00.000+00:00"
      }
    },
    "request": {
      "method": "PUT",
      "url": "Encounter/E-2300003204"
    }
  }, {
    "fullUrl": "MeasureReport/d71410b2-56c0-4eeb-af73-cf19a5437f3b",
    "resource": {
      "resourceType": "MeasureReport",
      "id": "d71410b2-56c0-4eeb-af73-cf19a5437f3b",
      "meta": {
        "profile": [ "http://hl7.org/fhir/us/cqfmeasures/StructureDefinition/test-case-cqfm" ]
      },
      "contained": [ {
        "resourceType": "Parameters",
        "id": "b8913d3a-ec5b-4c1a-8325-df2da7e50f9f-parameters",
        "parameter": [ {
          "name": "subject",
          "valueString": "a1da01d1-4abb-47d1-8320-6e3a75aed241"
        } ]
      } ],
      "extension": [ {
        "url": "http://hl7.org/fhir/us/cqfmeasures/StructureDefinition/cqfm-inputParameters",
        "valueReference": {
          "reference": "#b8913d3a-ec5b-4c1a-8325-df2da7e50f9f-parameters"
        }
      }, {
        "url": "http://hl7.org/fhir/us/cqfmeasures/StructureDefinition/cqfm-testCaseDescription",
        "valueMarkdown": "Patient does not have a dementia diagnosis required for initial population"
      } ],
      "modifierExtension": [ {
        "url": "http://hl7.org/fhir/us/cqfmeasures/StructureDefinition/cqfm-isTestCase",
        "valueBoolean": true
      } ],
      "status": "complete",
      "type": "individual",
      "measure": "Measure/DementiaCognitiveAssessmentFHIR",
      "period": {
        "start": "2025-01-01",
        "end": "2025-12-31"
      },
      "group": [ {
        "population": [ {
          "code": {
            "coding": [ {
              "system": "http://terminology.hl7.org/CodeSystem/measure-population",
              "code": "initial-population",
              "display": "Initial Population"
            } ]
          },
          "count": 0
        }, {
          "code": {
            "coding": [ {
              "system": "http://terminology.hl7.org/CodeSystem/measure-population",
              "code": "denominator",
              "display": "Denominator"
            } ]
          },
          "count": 0
        }, {
          "code": {
            "coding": [ {
              "system": "http://terminology.hl7.org/CodeSystem/measure-population",
              "code": "numerator",
              "display": "Numerator"
            } ]
          },
          "count": 0
        }, {
          "code": {
            "coding": [ {
              "system": "http://terminology.hl7.org/CodeSystem/measure-population",
              "code": "denominator-exception",
              "display": "Denominator Exception"
            } ]
          },
          "count": 0
        } ]
      } ],
      "evaluatedResource": [ {
        "reference": "Patient/a1da01d1-4abb-47d1-8320-6e3a75aed241"
      }, {
        "reference": "Encounter/C-2300003203"
      }, {
        "reference": "Encounter/E-2300003204"
      } ]
    },
    "request": {
      "method": "PUT",
      "url": "MeasureReport/d71410b2-56c0-4eeb-af73-cf19a5437f3b"
    }
  } ]
}
