{"resourceType":"Bundle","id":"tests-67a68d78-685a-43b5-9d05-c60b0a0beabc-bundle","type":"transaction","entry":[{"fullUrl":"Patient/67a68d78-685a-43b5-9d05-c60b0a0beabc","resource":{"resourceType":"Patient","id":"67a68d78-685a-43b5-9d05-c60b0a0beabc","meta":{"profile":["http://hl7.org/fhir/us/qicore/StructureDefinition/qicore-patient"]},"extension":[{"url":"http://hl7.org/fhir/us/core/StructureDefinition/us-core-race","extension":[{"url":"ombCategory","valueCoding":{"system":"urn:oid:2.16.840.1.113883.6.238","code":"2106-3","display":"White","userSelected":true}},{"url":"detailed","valueCoding":{"system":"urn:oid:2.16.840.1.113883.6.238","code":"1586-7","display":"Shoshone"}},{"url":"detailed","valueCoding":{"system":"urn:oid:2.16.840.1.113883.6.238","code":"2036-2","display":"Filipino"}},{"url":"text","valueString":"White"}]},{"url":"http://hl7.org/fhir/us/core/StructureDefinition/us-core-ethnicity","extension":[{"url":"ombCategory","valueCoding":{"system":"urn:oid:2.16.840.1.113883.6.238","code":"2135-2","display":"Hispanic or Latino","userSelected":true}},{"url":"detailed","valueCoding":{"system":"urn:oid:2.16.840.1.113883.6.238","code":"2184-0","display":"Dominican"}},{"url":"detailed","valueCoding":{"system":"urn:oid:2.16.840.1.113883.6.238","code":"2148-5","display":"Mexican"}},{"url":"text","valueString":"Hispanic or Latino"}]}],"identifier":[{"type":{"coding":[{"system":"http://terminology.hl7.org/CodeSystem/v2-0203","code":"MR"}]},"system":"https://goodhealth.healthit.gov/","value":"64270cbea7ffa60ebe02488f"}],"name":[{"family":"IPPass","given":["EncEnds1MinB4MPEdge"]}],"gender":"female","birthDate":"1992-01-02"},"request":{"method":"PUT","url":"Patient/67a68d78-685a-43b5-9d05-c60b0a0beabc"}},{"fullUrl":"Condition/C-2300003203","resource":{"resourceType":"Condition","id":"C-2300003203","meta":{"profile":["http://hl7.org/fhir/us/qicore/StructureDefinition/qicore-condition"]},"clinicalStatus":{"coding":[{"system":"http://terminology.hl7.org/CodeSystem/condition-clinical","code":"active","display":"Active","userSelected":true}]},"verificationStatus":{"coding":[{"system":"http://terminology.hl7.org/CodeSystem/condition-ver-status","code":"confirmed","display":"Confirmed","userSelected":true}]},"category":[{"coding":[{"system":"http://terminology.hl7.org/CodeSystem/condition-category","code":"encounter-diagnosis","display":"Encounter Diagnosis","userSelected":true}]}],"code":{"coding":[{"system":"http://hl7.org/fhir/sid/icd-10-cm","version":"2023","code":"G31.83","userSelected":true}]},"subject":{"reference":"Patient/67a68d78-685a-43b5-9d05-c60b0a0beabc"},"onsetPeriod":{"start":"2024-12-31T08:00:00.000+00:00"}},"request":{"method":"PUT","url":"Condition/C-2300003203"}},{"fullUrl":"Encounter/E-2300003204","resource":{"resourceType":"Encounter","id":"E-2300003204","meta":{"profile":["http://hl7.org/fhir/us/qicore/StructureDefinition/qicore-encounter"]},"status":"finished","class":{"system":"http://terminology.hl7.org/CodeSystem/v3-ActCode","code":"AMB","display":"ambulatory","userSelected":true},"type":[{"coding":[{"system":"http://www.ama-assn.org/go/cpt","version":"2023","code":"99212","userSelected":true}]}],"subject":{"reference":"Patient/67a68d78-685a-43b5-9d05-c60b0a0beabc"},"period":{"start":"2025-03-31T08:00:00.000+00:00","end":"2025-03-31T08:35:00.000+00:00"}},"request":{"method":"PUT","url":"Encounter/E-2300003204"}},{"fullUrl":"Encounter/E-23000032017","resource":{"resourceType":"Encounter","id":"E-23000032017","meta":{"profile":["http://hl7.org/fhir/us/qicore/StructureDefinition/qicore-encounter"]},"status":"finished","class":{"system":"http://terminology.hl7.org/CodeSystem/v3-ActCode","code":"AMB","display":"ambulatory","userSelected":true},"type":[{"coding":[{"system":"http://snomed.info/sct","version":"http://snomed.info/sct/731000124108/version/202303","code":"424574000","display":"Occupational therapy education, guidance, counseling (procedure)","userSelected":true}]}],"subject":{"reference":"Patient/67a68d78-685a-43b5-9d05-c60b0a0beabc"},"period":{"start":"2025-12-31T11:30:00.000+00:00","end":"2025-12-31T11:59:00.000+00:00"}},"request":{"method":"PUT","url":"Encounter/E-23000032017"}},{"fullUrl":"MeasureReport/71916d90-6f31-4705-9f8c-dd624f2a3247","resource":{"resourceType":"MeasureReport","id":"71916d90-6f31-4705-9f8c-dd624f2a3247","meta":{"profile":["http://hl7.org/fhir/us/cqfmeasures/StructureDefinition/test-case-cqfm"]},"contained":[{"resourceType":"Parameters","id":"e9bba365-bbf9-4c1c-8dca-2ff717053bd6-parameters","parameter":[{"name":"subject","valueString":"67a68d78-685a-43b5-9d05-c60b0a0beabc"}]}],"extension":[{"url":"http://hl7.org/fhir/us/cqfmeasures/StructureDefinition/cqfm-inputParameters","valueReference":{"reference":"#e9bba365-bbf9-4c1c-8dca-2ff717053bd6-parameters"}},{"url":"http://hl7.org/fhir/us/cqfmeasures/StructureDefinition/cqfm-testCaseDescription","valueMarkdown":"Patient has dementia dx and  2 qualifying encounters (Occupational Therapy Evaluation; Office Visit), one of which ends 1 minute before end of MP"}],"modifierExtension":[{"url":"http://hl7.org/fhir/us/cqfmeasures/StructureDefinition/cqfm-isTestCase","valueBoolean":true}],"status":"complete","type":"individual","measure":"Measure/DementiaCognitiveAssessmentFHIR","period":{"start":"2025-01-01","end":"2025-12-31"},"group":[{"population":[{"code":{"coding":[{"system":"http://terminology.hl7.org/CodeSystem/measure-population","code":"initial-population","display":"Initial Population"}]},"count":1},{"code":{"coding":[{"system":"http://terminology.hl7.org/CodeSystem/measure-population","code":"denominator","display":"Denominator"}]},"count":1},{"code":{"coding":[{"system":"http://terminology.hl7.org/CodeSystem/measure-population","code":"numerator","display":"Numerator"}]},"count":0},{"code":{"coding":[{"system":"http://terminology.hl7.org/CodeSystem/measure-population","code":"denominator-exception","display":"Denominator Exception"}]},"count":0}]}],"evaluatedResource":[{"reference":"Patient/67a68d78-685a-43b5-9d05-c60b0a0beabc"},{"reference":"Condition/C-2300003203"},{"reference":"Encounter/E-2300003204"},{"reference":"Encounter/E-23000032017"}]},"request":{"method":"PUT","url":"MeasureReport/71916d90-6f31-4705-9f8c-dd624f2a3247"}}]}