{"resourceType":"Bundle","id":"tests-97b034d3-87b0-4e89-b672-58389f8ebcb3-bundle","type":"transaction","entry":[{"fullUrl":"Patient/97b034d3-87b0-4e89-b672-58389f8ebcb3","resource":{"resourceType":"Patient","id":"97b034d3-87b0-4e89-b672-58389f8ebcb3","meta":{"profile":["http://hl7.org/fhir/us/qicore/StructureDefinition/qicore-patient"]},"extension":[{"url":"http://hl7.org/fhir/us/core/StructureDefinition/us-core-race","extension":[{"url":"ombCategory","valueCoding":{"system":"urn:oid:2.16.840.1.113883.6.238","code":"2054-5","display":"Black or African American","userSelected":true}},{"url":"text","valueString":"Black or African American"}]},{"url":"http://hl7.org/fhir/us/core/StructureDefinition/us-core-ethnicity","extension":[{"url":"ombCategory","valueCoding":{"system":"urn:oid:2.16.840.1.113883.6.238","code":"2186-5","display":"Not Hispanic or Latino","userSelected":true}},{"url":"text","valueString":"Not Hispanic or Latino"}]}],"identifier":[{"type":{"coding":[{"system":"http://terminology.hl7.org/CodeSystem/v2-0203","code":"MR"}]},"system":"https://bonnie-fhir.healthit.gov/","value":"610d959d16b40ae2d2ca7d6f"}],"name":[{"family":"DenomEXCEPFail","given":["AssessmentIssuedB4Encounter"]}],"gender":"male","birthDate":"1968-08-28"},"request":{"method":"PUT","url":"Patient/97b034d3-87b0-4e89-b672-58389f8ebcb3"}},{"fullUrl":"Encounter/E-C-300230006b","resource":{"resourceType":"Encounter","id":"E-C-300230006b","meta":{"profile":["http://hl7.org/fhir/us/qicore/StructureDefinition/qicore-encounter"]},"status":"finished","class":{"system":"http://terminology.hl7.org/CodeSystem/v3-ActCode","code":"AMB","display":"ambulatory","userSelected":true},"type":[{"coding":[{"system":"http://snomed.info/sct","version":"2020-09","code":"185460008","display":"Home visit request by patient (procedure)","userSelected":true}]}],"subject":{"reference":"Patient/97b034d3-87b0-4e89-b672-58389f8ebcb3"},"period":{"start":"2025-08-06T08:00:00.000+00:00","end":"2025-08-06T08:15:00.000+00:00"}},"request":{"method":"PUT","url":"Encounter/E-C-300230006b"}},{"fullUrl":"Condition/300230006b","resource":{"resourceType":"Condition","id":"300230006b","meta":{"profile":["http://hl7.org/fhir/us/qicore/StructureDefinition/qicore-condition"]},"clinicalStatus":{"coding":[{"system":"http://terminology.hl7.org/CodeSystem/condition-clinical","code":"active","display":"active","userSelected":true}]},"category":[{"coding":[{"system":"http://terminology.hl7.org/CodeSystem/condition-clinical","code":"active","display":"active","userSelected":true}]}],"code":{"coding":[{"system":"http://snomed.info/sct","version":"http://snomed.info/sct/731000124108/version/202303","code":"10349009","display":"Multi-infarct dementia with delirium (disorder)","userSelected":true}]},"subject":{"reference":"Patient/97b034d3-87b0-4e89-b672-58389f8ebcb3"},"onsetDateTime":"2025-08-06T08:00:00.000+00:00","recordedDate":"2025-08-09T08:00:00.000+00:00"},"request":{"method":"PUT","url":"Condition/300230006b"}},{"fullUrl":"Encounter/E-300230007","resource":{"resourceType":"Encounter","id":"E-300230007","meta":{"profile":["http://hl7.org/fhir/us/qicore/StructureDefinition/qicore-encounter"]},"status":"finished","class":{"system":"http://terminology.hl7.org/CodeSystem/v3-ActCode","code":"AMB","display":"ambulatory","userSelected":true},"type":[{"coding":[{"system":"http://snomed.info/sct","version":"2020-09","code":"185316007","display":"Indirect encounter (procedure)","userSelected":true}]}],"subject":{"reference":"Patient/97b034d3-87b0-4e89-b672-58389f8ebcb3"},"period":{"start":"2025-08-06T08:00:00.000+00:00","end":"2025-08-06T08:15:00.000+00:00"}},"request":{"method":"PUT","url":"Encounter/E-300230007"}},{"fullUrl":"Observation/O-300230009","resource":{"resourceType":"Observation","id":"O-300230009","extension":[{"url":"http://hl7.org/fhir/us/qicore/StructureDefinition/qicore-notDone","valueBoolean":true}],"status":"cancelled","code":{"coding":[{"system":"http://loinc.org","version":"2.69","code":"58151-2","display":"Prior assessment Brief Interview for Mental Status (BIMS) summary score [MDSv3]","userSelected":true}]},"issued":"2025-08-05T07:00:00.000+00:00"},"request":{"method":"PUT","url":"Observation/O-300230009"}},{"fullUrl":"MeasureReport/5321e5a8-3f9c-460a-94c6-6af64e01ee55","resource":{"resourceType":"MeasureReport","id":"5321e5a8-3f9c-460a-94c6-6af64e01ee55","meta":{"profile":["http://hl7.org/fhir/us/cqfmeasures/StructureDefinition/test-case-cqfm"]},"contained":[{"resourceType":"Parameters","id":"78658a82-0462-4b10-8814-fe210f92af43-parameters","parameter":[{"name":"subject","valueString":"97b034d3-87b0-4e89-b672-58389f8ebcb3"}]}],"extension":[{"url":"http://hl7.org/fhir/us/cqfmeasures/StructureDefinition/cqfm-inputParameters","valueReference":{"reference":"#78658a82-0462-4b10-8814-fe210f92af43-parameters"}},{"url":"http://hl7.org/fhir/us/cqfmeasures/StructureDefinition/cqfm-testCaseDescription","valueMarkdown":"Documentation of patient reason for not performing assessment is outside of encounter period "}],"modifierExtension":[{"url":"http://hl7.org/fhir/us/cqfmeasures/StructureDefinition/cqfm-isTestCase","valueBoolean":true}],"status":"complete","type":"individual","measure":"Measure/DementiaCognitiveAssessmentFHIR","period":{"start":"2025-01-01","end":"2025-12-31"},"group":[{"population":[{"code":{"coding":[{"system":"http://terminology.hl7.org/CodeSystem/measure-population","code":"initial-population","display":"Initial Population"}]},"count":1},{"code":{"coding":[{"system":"http://terminology.hl7.org/CodeSystem/measure-population","code":"denominator","display":"Denominator"}]},"count":1},{"code":{"coding":[{"system":"http://terminology.hl7.org/CodeSystem/measure-population","code":"numerator","display":"Numerator"}]},"count":0},{"code":{"coding":[{"system":"http://terminology.hl7.org/CodeSystem/measure-population","code":"denominator-exception","display":"Denominator Exception"}]},"count":0}]}],"evaluatedResource":[{"reference":"Patient/97b034d3-87b0-4e89-b672-58389f8ebcb3"},{"reference":"Encounter/E-C-300230006b"},{"reference":"Condition/300230006b"},{"reference":"Encounter/E-300230007"},{"reference":"Observation/O-300230009"}]},"request":{"method":"PUT","url":"MeasureReport/5321e5a8-3f9c-460a-94c6-6af64e01ee55"}}]}