{"resourceType":"Bundle","id":"tests-385a9c0b-90f0-41d9-8f9f-1b54798b6cf8-bundle","type":"transaction","entry":[{"fullUrl":"Patient/385a9c0b-90f0-41d9-8f9f-1b54798b6cf8","resource":{"resourceType":"Patient","id":"385a9c0b-90f0-41d9-8f9f-1b54798b6cf8","meta":{"profile":["http://hl7.org/fhir/us/qicore/StructureDefinition/qicore-patient"]},"extension":[{"url":"http://hl7.org/fhir/us/core/StructureDefinition/us-core-race","extension":[{"url":"ombCategory","valueCoding":{"system":"urn:oid:2.16.840.1.113883.6.238","code":"1002-5","display":"American Indian or Alaska Native","userSelected":true}},{"url":"text","valueString":"American Indian or Alaska Native"}]},{"url":"http://hl7.org/fhir/us/core/StructureDefinition/us-core-ethnicity","extension":[{"url":"ombCategory","valueCoding":{"system":"urn:oid:2.16.840.1.113883.6.238","code":"2135-2","display":"Hispanic or Latino","userSelected":true}},{"url":"text","valueString":"Hispanic or Latino"}]}],"identifier":[{"type":{"coding":[{"system":"http://terminology.hl7.org/CodeSystem/v2-0203","code":"MR"}]},"system":"https://goodhealth.healthit.gov/","value":"64270cbea7ffa60ebe02488f"}],"name":[{"family":"IPFail","given":["Encounter1DayAfterMPEdge"]}],"gender":"female","birthDate":"1988-01-02"},"request":{"method":"PUT","url":"Patient/385a9c0b-90f0-41d9-8f9f-1b54798b6cf8"}},{"fullUrl":"Condition/C-2300003203","resource":{"resourceType":"Condition","id":"C-2300003203","meta":{"profile":["http://hl7.org/fhir/us/qicore/StructureDefinition/qicore-condition"]},"clinicalStatus":{"coding":[{"system":"http://terminology.hl7.org/CodeSystem/condition-clinical","code":"active","display":"Active","userSelected":true}]},"verificationStatus":{"coding":[{"system":"http://terminology.hl7.org/CodeSystem/condition-ver-status","code":"confirmed","display":"Confirmed","userSelected":true}]},"category":[{"coding":[{"system":"http://terminology.hl7.org/CodeSystem/condition-category","code":"encounter-diagnosis","display":"Encounter Diagnosis","userSelected":true}]}],"code":{"coding":[{"system":"http://hl7.org/fhir/sid/icd-10-cm","version":"2023","code":"G31.83","userSelected":true}]},"subject":{"reference":"Patient/385a9c0b-90f0-41d9-8f9f-1b54798b6cf8"},"onsetPeriod":{"start":"2023-12-31T08:00:00.000+00:00"}},"request":{"method":"PUT","url":"Condition/C-2300003203"}},{"fullUrl":"Encounter/E-2300003204","resource":{"resourceType":"Encounter","id":"E-2300003204","meta":{"profile":["http://hl7.org/fhir/us/qicore/StructureDefinition/qicore-encounter"]},"status":"finished","class":{"system":"http://terminology.hl7.org/CodeSystem/v3-ActCode","code":"AMB","display":"ambulatory","userSelected":true},"type":[{"coding":[{"system":"http://www.ama-assn.org/go/cpt","version":"2023","code":"99212","userSelected":true}]}],"subject":{"reference":"Patient/385a9c0b-90f0-41d9-8f9f-1b54798b6cf8"},"period":{"start":"2026-01-01T00:00:00.000+00:00","end":"2026-01-01T00:35:00.000+00:00"}},"request":{"method":"PUT","url":"Encounter/E-2300003204"}},{"fullUrl":"Encounter/E-23000032017","resource":{"resourceType":"Encounter","id":"E-23000032017","meta":{"profile":["http://hl7.org/fhir/us/qicore/StructureDefinition/qicore-encounter"]},"status":"finished","class":{"system":"http://terminology.hl7.org/CodeSystem/v3-ActCode","code":"AMB","display":"ambulatory","userSelected":true},"type":[{"coding":[{"system":"http://snomed.info/sct","version":"http://snomed.info/sct/731000124108/version/202303","code":"185463005","display":"Visit out of hours (procedure)","userSelected":true}]}],"subject":{"reference":"Patient/385a9c0b-90f0-41d9-8f9f-1b54798b6cf8"},"period":{"start":"2025-08-31T08:00:00.000+00:00","end":"2025-08-31T08:35:00.000+00:00"}},"request":{"method":"PUT","url":"Encounter/E-23000032017"}},{"fullUrl":"MeasureReport/21b14f17-98fc-45b5-bf7f-2fa6e9bf230e","resource":{"resourceType":"MeasureReport","id":"21b14f17-98fc-45b5-bf7f-2fa6e9bf230e","meta":{"profile":["http://hl7.org/fhir/us/cqfmeasures/StructureDefinition/test-case-cqfm"]},"contained":[{"resourceType":"Parameters","id":"6f318cb5-4fb8-40b8-ba93-f30abdecca25-parameters","parameter":[{"name":"subject","valueString":"385a9c0b-90f0-41d9-8f9f-1b54798b6cf8"}]}],"extension":[{"url":"http://hl7.org/fhir/us/cqfmeasures/StructureDefinition/cqfm-inputParameters","valueReference":{"reference":"#6f318cb5-4fb8-40b8-ba93-f30abdecca25-parameters"}},{"url":"http://hl7.org/fhir/us/cqfmeasures/StructureDefinition/cqfm-testCaseDescription","valueMarkdown":"Patient with Dementia dx  has two visits of which one is non-qualifying for Initial population d/t effective period 1 day past Measurement Period"}],"modifierExtension":[{"url":"http://hl7.org/fhir/us/cqfmeasures/StructureDefinition/cqfm-isTestCase","valueBoolean":true}],"status":"complete","type":"individual","measure":"Measure/DementiaCognitiveAssessmentFHIR","period":{"start":"2025-01-01","end":"2025-12-31"},"group":[{"population":[{"code":{"coding":[{"system":"http://terminology.hl7.org/CodeSystem/measure-population","code":"initial-population","display":"Initial Population"}]},"count":0},{"code":{"coding":[{"system":"http://terminology.hl7.org/CodeSystem/measure-population","code":"denominator","display":"Denominator"}]},"count":0},{"code":{"coding":[{"system":"http://terminology.hl7.org/CodeSystem/measure-population","code":"numerator","display":"Numerator"}]},"count":0},{"code":{"coding":[{"system":"http://terminology.hl7.org/CodeSystem/measure-population","code":"denominator-exception","display":"Denominator Exception"}]},"count":0}]}],"evaluatedResource":[{"reference":"Patient/385a9c0b-90f0-41d9-8f9f-1b54798b6cf8"},{"reference":"Condition/C-2300003203"},{"reference":"Encounter/E-2300003204"},{"reference":"Encounter/E-23000032017"}]},"request":{"method":"PUT","url":"MeasureReport/21b14f17-98fc-45b5-bf7f-2fa6e9bf230e"}}]}