{"resourceType":"Bundle","id":"tests-3dc394cd-e73b-4843-8f30-21a545500b23-bundle","type":"transaction","entry":[{"fullUrl":"Patient/3dc394cd-e73b-4843-8f30-21a545500b23","resource":{"resourceType":"Patient","id":"3dc394cd-e73b-4843-8f30-21a545500b23","meta":{"profile":["http://hl7.org/fhir/us/qicore/StructureDefinition/qicore-patient"]},"extension":[{"url":"http://hl7.org/fhir/us/core/StructureDefinition/us-core-race","extension":[{"url":"ombCategory","valueCoding":{"system":"urn:oid:2.16.840.1.113883.6.238","code":"2054-5","display":"Black or African American","userSelected":true}},{"url":"text","valueString":"Black or African American"}]},{"url":"http://hl7.org/fhir/us/core/StructureDefinition/us-core-ethnicity","extension":[{"url":"ombCategory","valueCoding":{"system":"urn:oid:2.16.840.1.113883.6.238","code":"2186-5","display":"Not Hispanic or Latino","userSelected":true}},{"url":"text","valueString":"Not Hispanic or Latino"}]}],"identifier":[{"type":{"coding":[{"system":"http://terminology.hl7.org/CodeSystem/v2-0203","code":"MR"}]},"system":"https://goodhealth.com/","value":"610d828c37a47d6ac0116a12"}],"name":[{"family":"DENEXCEPPass","given":["AssessmentNotDonePatientReason1MinB4EncEdge"]}],"gender":"male","birthDate":"1975-01-10"},"request":{"method":"PUT","url":"Patient/3dc394cd-e73b-4843-8f30-21a545500b23"}},{"fullUrl":"Encounter/E-30023001","resource":{"resourceType":"Encounter","id":"E-30023001","meta":{"profile":["http://hl7.org/fhir/us/qicore/StructureDefinition/qicore-encounter"]},"status":"finished","class":{"system":"http://terminology.hl7.org/CodeSystem/v3-ActCode","code":"AMB","display":"ambulatory","userSelected":true},"type":[{"coding":[{"system":"http://snomed.info/sct","version":"http://snomed.info/sct/731000124108/version/202303","code":"185460008","display":"Home visit request by patient (procedure)","userSelected":true}]}],"subject":{"reference":"Patient/3dc394cd-e73b-4843-8f30-21a545500b23"},"period":{"start":"2025-08-06T08:00:00.000+00:00","end":"2025-08-06T09:00:00.000+00:00"}},"request":{"method":"PUT","url":"Encounter/E-30023001"}},{"fullUrl":"Condition/C-300230002","resource":{"resourceType":"Condition","id":"C-300230002","meta":{"profile":["http://hl7.org/fhir/us/qicore/StructureDefinition/qicore-condition"]},"clinicalStatus":{"coding":[{"system":"http://terminology.hl7.org/CodeSystem/condition-clinical","code":"active","display":"active","userSelected":true}]},"category":[{"coding":[{"system":"http://terminology.hl7.org/CodeSystem/condition-clinical","code":"active","display":"active","userSelected":true}]}],"code":{"coding":[{"system":"http://snomed.info/sct","version":"http://snomed.info/sct/731000124108/version/202303","code":"191451009","display":"Uncomplicated presenile dementia (disorder)","userSelected":true}]},"subject":{"reference":"Patient/3dc394cd-e73b-4843-8f30-21a545500b23"},"onsetDateTime":"2023-05-06T08:00:00.000+00:00","recordedDate":"2023-05-06T08:00:00.000+00:00"},"request":{"method":"PUT","url":"Condition/C-300230002"}},{"fullUrl":"Encounter/E-300230003","resource":{"resourceType":"Encounter","id":"E-300230003","meta":{"profile":["http://hl7.org/fhir/us/qicore/StructureDefinition/qicore-encounter"]},"status":"finished","class":{"system":"http://terminology.hl7.org/CodeSystem/v3-ActCode","code":"AMB","display":"ambulatory","userSelected":true},"type":[{"coding":[{"system":"http://snomed.info/sct","version":"http://snomed.info/sct/731000124108/version/202303","code":"185316007","display":"Indirect encounter (procedure)","userSelected":true}]}],"subject":{"reference":"Patient/3dc394cd-e73b-4843-8f30-21a545500b23"},"period":{"start":"2025-05-06T08:00:00.000+00:00","end":"2025-05-06T08:15:00.000+00:00"}},"request":{"method":"PUT","url":"Encounter/E-300230003"}},{"fullUrl":"Procedure/P-300230004","resource":{"resourceType":"Procedure","id":"P-300230004","meta":{"profile":["http://hl7.org/fhir/us/qicore/StructureDefinition/qicore-procedure"]},"extension":[{"url":"http://hl7.org/fhir/us/qicore/StructureDefinition/qicore-recorded","valueDateTime":"2025-05-05T09:35:00-04:00"}],"status":"completed","category":{"coding":[{"system":"http://loinc.org","version":"2.73","code":"58151-2","display":"Prior assessment Brief Interview for Mental Status (BIMS) summary score [MDSv3]","userSelected":true}]},"code":{"coding":[{"system":"http://snomed.info/sct","version":"http://snomed.info/sct/731000124108/version/202303","code":"113024001","display":"Assessment and interpretation of higher cerebral function, cognitive testing (procedure)","userSelected":true}]},"subject":{"reference":"Patient/3dc394cd-e73b-4843-8f30-21a545500b23"},"encounter":{"reference":"Encounter/home-healthcare-services-8b61"},"performedDateTime":"2025-05-06T08:00:00.000+00:00"},"request":{"method":"PUT","url":"Procedure/P-300230004"}},{"fullUrl":"Observation/O-300230010","resource":{"resourceType":"Observation","id":"O-300230010","meta":{"profile":["http://hl7.org/fhir/us/qicore/StructureDefinition/qicore-observationnotdone"]},"extension":[{"url":"http://hl7.org/fhir/us/qicore/StructureDefinition/qicore-notDoneReason","valueCodeableConcept":{"coding":[{"system":"http://snomed.info/sct","version":"http://snomed.info/sct/731000124108/version/20230301","code":"275936005","display":"Patient noncompliance - general (situation)"}]}}],"status":"cancelled","category":[{"coding":[{"system":"http://snomed.info/sct","version":"http://snomed.info/sct/731000124108/version/202303","code":"113024001","display":"Assessment and interpretation of higher cerebral function, cognitive testing (procedure)","userSelected":true}]}],"code":{"coding":[{"system":"http://snomed.info/sct","version":"http://snomed.info/sct/731000124108/version/202303","code":"113024001","display":"Assessment and interpretation of higher cerebral function, cognitive testing (procedure)"}]},"subject":{"reference":"Patient/3dc394cd-e73b-4843-8f30-21a545500b23"},"effectiveDateTime":"2025-05-06T08:00:00.000+00:00","issued":"2025-08-06T08:59:00.000+00:00"},"request":{"method":"PUT","url":"Observation/O-300230010"}},{"fullUrl":"MeasureReport/8da9318b-b4ba-44e2-a684-188457835b44","resource":{"resourceType":"MeasureReport","id":"8da9318b-b4ba-44e2-a684-188457835b44","meta":{"profile":["http://hl7.org/fhir/us/cqfmeasures/StructureDefinition/test-case-cqfm"]},"contained":[{"resourceType":"Parameters","id":"7f05017f-6b5a-4d74-b695-62969a42f256-parameters","parameter":[{"name":"subject","valueString":"3dc394cd-e73b-4843-8f30-21a545500b23"}]}],"extension":[{"url":"http://hl7.org/fhir/us/cqfmeasures/StructureDefinition/cqfm-inputParameters","valueReference":{"reference":"#7f05017f-6b5a-4d74-b695-62969a42f256-parameters"}},{"url":"http://hl7.org/fhir/us/cqfmeasures/StructureDefinition/cqfm-testCaseDescription","valueMarkdown":"Patient Reason for not performing Cognitive Assessment is effective one minute before end of Encounter"}],"modifierExtension":[{"url":"http://hl7.org/fhir/us/cqfmeasures/StructureDefinition/cqfm-isTestCase","valueBoolean":true}],"status":"complete","type":"individual","measure":"Measure/DementiaCognitiveAssessmentFHIR","period":{"start":"2025-01-01","end":"2025-12-31"},"group":[{"population":[{"code":{"coding":[{"system":"http://terminology.hl7.org/CodeSystem/measure-population","code":"initial-population","display":"Initial Population"}]},"count":1},{"code":{"coding":[{"system":"http://terminology.hl7.org/CodeSystem/measure-population","code":"denominator","display":"Denominator"}]},"count":1},{"code":{"coding":[{"system":"http://terminology.hl7.org/CodeSystem/measure-population","code":"numerator","display":"Numerator"}]},"count":0},{"code":{"coding":[{"system":"http://terminology.hl7.org/CodeSystem/measure-population","code":"denominator-exception","display":"Denominator Exception"}]},"count":1}]}],"evaluatedResource":[{"reference":"Patient/3dc394cd-e73b-4843-8f30-21a545500b23"},{"reference":"Encounter/E-30023001"},{"reference":"Condition/C-300230002"},{"reference":"Encounter/E-300230003"},{"reference":"Procedure/P-300230004"},{"reference":"Observation/O-300230010"}]},"request":{"method":"PUT","url":"MeasureReport/8da9318b-b4ba-44e2-a684-188457835b44"}}]}