{
  "resourceType": "Bundle",
  "id": "NUMPass-InitHOOS90DaysB4THAFUHOOS425DaysAfterTHA",
  "type": "transaction",
  "entry": [ {
    "fullUrl": "https://madie.cms.gov/Patient/50c6997f-0aab-4baa-af63-a2d05a2ad3ac",
    "resource": {
      "resourceType": "Patient",
      "id": "50c6997f-0aab-4baa-af63-a2d05a2ad3ac",
      "meta": {
        "profile": [ "http://hl7.org/fhir/us/qicore/StructureDefinition/qicore-patient" ]
      },
      "extension": [ {
        "url": "http://hl7.org/fhir/us/core/StructureDefinition/us-core-race",
        "extension": [ {
          "url": "ombCategory",
          "valueCoding": {
            "system": "urn:oid:2.16.840.1.113883.6.238",
            "code": "2028-9",
            "display": "Asian"
          }
        }, {
          "url": "text",
          "valueString": "Asian"
        } ]
      }, {
        "url": "http://hl7.org/fhir/us/core/StructureDefinition/us-core-ethnicity",
        "extension": [ {
          "url": "ombCategory",
          "valueCoding": {
            "system": "urn:oid:2.16.840.1.113883.6.238",
            "code": "2135-2",
            "display": "Hispanic or Latino"
          }
        }, {
          "url": "text",
          "valueString": "Hispanic or Latino"
        } ]
      } ],
      "identifier": [ {
        "system": "http://hospital.smarthealthit.org",
        "value": "999999995"
      } ],
      "name": [ {
        "family": "Bertha",
        "given": [ "Betty" ]
      } ],
      "gender": "female",
      "birthDate": "2006-01-01"
    },
    "request": {
      "method": "POST",
      "url": "Patient/50c6997f-0aab-4baa-af63-a2d05a2ad3ac"
    }
  }, {
    "fullUrl": "https://madie.cms.gov/Procedure/Procedure-33",
    "resource": {
      "resourceType": "Procedure",
      "id": "Procedure-33",
      "meta": {
        "profile": [ "http://hl7.org/fhir/us/qicore/StructureDefinition/qicore-procedure" ]
      },
      "extension": [ {
        "url": "http://hl7.org/fhir/us/qicore/StructureDefinition/qicore-recorded",
        "valueDateTime": "2023-11-01T00:00:00.000Z"
      } ],
      "status": "completed",
      "code": {
        "coding": [ {
          "system": "http://www.cms.gov/Medicare/Coding/ICD10",
          "code": "0SR9019",
          "display": "Replacement of Right Hip Joint with Metal Synthetic Substitute, Cemented, Open Approach"
        } ]
      },
      "subject": {
        "reference": "Patient/50c6997f-0aab-4baa-af63-a2d05a2ad3ac"
      },
      "performedPeriod": {
        "start": "2023-11-01T00:00:00.000Z",
        "end": "2023-11-01T01:00:00.000Z"
      }
    },
    "request": {
      "method": "POST",
      "url": "Procedure/Procedure-33"
    }
  }, {
    "fullUrl": "https://madie.cms.gov/Encounter/Encounter-33",
    "resource": {
      "resourceType": "Encounter",
      "id": "Encounter-33",
      "meta": {
        "profile": [ "http://hl7.org/fhir/us/qicore/StructureDefinition/qicore-encounter" ]
      },
      "status": "finished",
      "class": {
        "system": "http://terminology.hl7.org/CodeSystem/v3-ActCode",
        "code": "AMB",
        "display": "ambulatory"
      },
      "type": [ {
        "coding": [ {
          "system": "http://snomed.info/sct",
          "code": "281036007",
          "display": "Follow-up consultation (procedure)"
        } ]
      } ],
      "subject": {
        "reference": "Patient/50c6997f-0aab-4baa-af63-a2d05a2ad3ac"
      },
      "period": {
        "start": "2024-11-01T00:00:00.000Z",
        "end": "2024-11-01T01:15:00.000Z"
      }
    },
    "request": {
      "method": "POST",
      "url": "Encounter/Encounter-33"
    }
  }, {
    "fullUrl": "https://madie.cms.gov/Observation/Observation-33.1-1",
    "resource": {
      "resourceType": "Observation",
      "id": "Observation-33.1-1",
      "meta": {
        "profile": [ "http://hl7.org/fhir/us/qicore/StructureDefinition/qicore-observation" ]
      },
      "status": "final",
      "category": [ {
        "coding": [ {
          "system": "http://terminology.hl7.org/CodeSystem/observation-category",
          "code": "survey"
        } ]
      } ],
      "code": {
        "coding": [ {
          "system": "http://loinc.org",
          "code": "72093-8",
          "display": "Quality of life score [HOOS]"
        } ]
      },
      "subject": {
        "reference": "Patient/50c6997f-0aab-4baa-af63-a2d05a2ad3ac"
      },
      "effectivePeriod": {
        "start": "2023-08-03T00:00:00.000Z",
        "end": "2023-08-03T01:00:00.000Z"
      },
      "valueInteger": 60
    },
    "request": {
      "method": "POST",
      "url": "Observation/Observation-33.1-1"
    }
  }, {
    "fullUrl": "https://madie.cms.gov/Observation/Observation-33.1-2",
    "resource": {
      "resourceType": "Observation",
      "id": "Observation-33.1-2",
      "meta": {
        "profile": [ "http://hl7.org/fhir/us/qicore/StructureDefinition/qicore-observation" ]
      },
      "status": "final",
      "category": [ {
        "coding": [ {
          "system": "http://terminology.hl7.org/CodeSystem/observation-category",
          "code": "survey"
        } ]
      } ],
      "code": {
        "coding": [ {
          "system": "http://loinc.org",
          "code": "72094-6",
          "display": "Sport-recreation score [HOOS]"
        } ]
      },
      "subject": {
        "reference": "Patient/50c6997f-0aab-4baa-af63-a2d05a2ad3ac"
      },
      "effectivePeriod": {
        "start": "2023-08-03T00:00:00.000Z",
        "end": "2023-08-03T01:00:00.000Z"
      },
      "valueInteger": 60
    },
    "request": {
      "method": "POST",
      "url": "Observation/Observation-33.1-2"
    }
  }, {
    "fullUrl": "https://madie.cms.gov/Observation/Observation-33.1-3",
    "resource": {
      "resourceType": "Observation",
      "id": "Observation-33.1-3",
      "meta": {
        "profile": [ "http://hl7.org/fhir/us/qicore/StructureDefinition/qicore-observation" ]
      },
      "status": "final",
      "category": [ {
        "coding": [ {
          "system": "http://terminology.hl7.org/CodeSystem/observation-category",
          "code": "survey"
        } ]
      } ],
      "code": {
        "coding": [ {
          "system": "http://loinc.org",
          "code": "72095-3",
          "display": "Activities of daily living score [HOOS]"
        } ]
      },
      "subject": {
        "reference": "Patient/50c6997f-0aab-4baa-af63-a2d05a2ad3ac"
      },
      "effectivePeriod": {
        "start": "2023-08-03T00:00:00.000Z",
        "end": "2023-08-03T01:00:00.000Z"
      },
      "valueInteger": 60
    },
    "request": {
      "method": "POST",
      "url": "Observation/Observation-33.1-3"
    }
  }, {
    "fullUrl": "https://madie.cms.gov/Observation/Observation-33.1-4",
    "resource": {
      "resourceType": "Observation",
      "id": "Observation-33.1-4",
      "meta": {
        "profile": [ "http://hl7.org/fhir/us/qicore/StructureDefinition/qicore-observation" ]
      },
      "status": "final",
      "category": [ {
        "coding": [ {
          "system": "http://terminology.hl7.org/CodeSystem/observation-category",
          "code": "survey"
        } ]
      } ],
      "code": {
        "coding": [ {
          "system": "http://loinc.org",
          "code": "72096-1",
          "display": "Symptoms score [HOOS]"
        } ]
      },
      "subject": {
        "reference": "Patient/50c6997f-0aab-4baa-af63-a2d05a2ad3ac"
      },
      "effectivePeriod": {
        "start": "2023-08-03T00:00:00.000Z",
        "end": "2023-08-03T01:00:00.000Z"
      },
      "valueInteger": 60
    },
    "request": {
      "method": "POST",
      "url": "Observation/Observation-33.1-4"
    }
  }, {
    "fullUrl": "https://madie.cms.gov/Observation/Observation-33.1-5",
    "resource": {
      "resourceType": "Observation",
      "id": "Observation-33.1-5",
      "meta": {
        "profile": [ "http://hl7.org/fhir/us/qicore/StructureDefinition/qicore-observation" ]
      },
      "status": "final",
      "category": [ {
        "coding": [ {
          "system": "http://terminology.hl7.org/CodeSystem/observation-category",
          "code": "survey"
        } ]
      } ],
      "code": {
        "coding": [ {
          "system": "http://loinc.org",
          "code": "72097-9",
          "display": "Pain score [HOOS]"
        } ]
      },
      "subject": {
        "reference": "Patient/50c6997f-0aab-4baa-af63-a2d05a2ad3ac"
      },
      "effectivePeriod": {
        "start": "2023-08-03T00:00:00.000Z",
        "end": "2023-08-03T01:00:00.000Z"
      },
      "valueInteger": 60
    },
    "request": {
      "method": "POST",
      "url": "Observation/Observation-33.1-5"
    }
  }, {
    "fullUrl": "https://madie.cms.gov/Observation/Observation-33.2-1",
    "resource": {
      "resourceType": "Observation",
      "id": "Observation-33.2-1",
      "meta": {
        "profile": [ "http://hl7.org/fhir/us/qicore/StructureDefinition/qicore-observation" ]
      },
      "status": "final",
      "category": [ {
        "coding": [ {
          "system": "http://terminology.hl7.org/CodeSystem/observation-category",
          "code": "survey"
        } ]
      } ],
      "code": {
        "coding": [ {
          "system": "http://loinc.org",
          "code": "72093-8",
          "display": "Quality of life score [HOOS]"
        } ]
      },
      "subject": {
        "reference": "Patient/50c6997f-0aab-4baa-af63-a2d05a2ad3ac"
      },
      "effectivePeriod": {
        "start": "2024-12-30T00:00:00.000Z",
        "end": "2024-12-30T01:00:00.000Z"
      },
      "valueInteger": 60
    },
    "request": {
      "method": "POST",
      "url": "Observation/Observation-33.2-1"
    }
  }, {
    "fullUrl": "https://madie.cms.gov/Observation/Observation-33.2-2",
    "resource": {
      "resourceType": "Observation",
      "id": "Observation-33.2-2",
      "meta": {
        "profile": [ "http://hl7.org/fhir/us/qicore/StructureDefinition/qicore-observation" ]
      },
      "status": "final",
      "category": [ {
        "coding": [ {
          "system": "http://terminology.hl7.org/CodeSystem/observation-category",
          "code": "survey"
        } ]
      } ],
      "code": {
        "coding": [ {
          "system": "http://loinc.org",
          "code": "72094-6",
          "display": "Sport-recreation score [HOOS]"
        } ]
      },
      "subject": {
        "reference": "Patient/50c6997f-0aab-4baa-af63-a2d05a2ad3ac"
      },
      "effectivePeriod": {
        "start": "2024-12-30T00:00:00.000Z",
        "end": "2024-12-30T01:00:00.000Z"
      },
      "valueInteger": 60
    },
    "request": {
      "method": "POST",
      "url": "Observation/Observation-33.2-2"
    }
  }, {
    "fullUrl": "https://madie.cms.gov/Observation/Observation-33.2-3",
    "resource": {
      "resourceType": "Observation",
      "id": "Observation-33.2-3",
      "meta": {
        "profile": [ "http://hl7.org/fhir/us/qicore/StructureDefinition/qicore-observation" ]
      },
      "status": "final",
      "category": [ {
        "coding": [ {
          "system": "http://terminology.hl7.org/CodeSystem/observation-category",
          "code": "survey"
        } ]
      } ],
      "code": {
        "coding": [ {
          "system": "http://loinc.org",
          "code": "72095-3",
          "display": "Activities of daily living score [HOOS]"
        } ]
      },
      "subject": {
        "reference": "Patient/50c6997f-0aab-4baa-af63-a2d05a2ad3ac"
      },
      "effectivePeriod": {
        "start": "2024-12-30T00:00:00.000Z",
        "end": "2024-12-30T01:00:00.000Z"
      },
      "valueInteger": 60
    },
    "request": {
      "method": "POST",
      "url": "Observation/Observation-33.2-3"
    }
  }, {
    "fullUrl": "https://madie.cms.gov/Observation/Observation-33.2-4",
    "resource": {
      "resourceType": "Observation",
      "id": "Observation-33.2-4",
      "meta": {
        "profile": [ "http://hl7.org/fhir/us/qicore/StructureDefinition/qicore-observation" ]
      },
      "status": "final",
      "category": [ {
        "coding": [ {
          "system": "http://terminology.hl7.org/CodeSystem/observation-category",
          "code": "survey"
        } ]
      } ],
      "code": {
        "coding": [ {
          "system": "http://loinc.org",
          "code": "72096-1",
          "display": "Symptoms score [HOOS]"
        } ]
      },
      "subject": {
        "reference": "Patient/50c6997f-0aab-4baa-af63-a2d05a2ad3ac"
      },
      "effectivePeriod": {
        "start": "2024-12-30T00:00:00.000Z",
        "end": "2024-12-30T01:00:00.000Z"
      },
      "valueInteger": 60
    },
    "request": {
      "method": "POST",
      "url": "Observation/Observation-33.2-4"
    }
  }, {
    "fullUrl": "https://madie.cms.gov/Observation/Observation-33.2-5",
    "resource": {
      "resourceType": "Observation",
      "id": "Observation-33.2-5",
      "meta": {
        "profile": [ "http://hl7.org/fhir/us/qicore/StructureDefinition/qicore-observation" ]
      },
      "status": "final",
      "category": [ {
        "coding": [ {
          "system": "http://terminology.hl7.org/CodeSystem/observation-category",
          "code": "survey"
        } ]
      } ],
      "code": {
        "coding": [ {
          "system": "http://loinc.org",
          "code": "72097-9",
          "display": "Pain score [HOOS]"
        } ]
      },
      "subject": {
        "reference": "Patient/50c6997f-0aab-4baa-af63-a2d05a2ad3ac"
      },
      "effectivePeriod": {
        "start": "2024-12-30T00:00:00.000Z",
        "end": "2024-12-30T01:00:00.000Z"
      },
      "valueInteger": 60
    },
    "request": {
      "method": "POST",
      "url": "Observation/Observation-33.2-5"
    }
  }, {
    "fullUrl": "https://madie.cms.gov/MeasureReport/12c3cceb-8269-496a-8b47-19c7eca0a1c6",
    "resource": {
      "resourceType": "MeasureReport",
      "id": "12c3cceb-8269-496a-8b47-19c7eca0a1c6",
      "meta": {
        "profile": [ "http://hl7.org/fhir/us/cqfmeasures/StructureDefinition/test-case-cqfm" ]
      },
      "contained": [ {
        "resourceType": "Parameters",
        "id": "83ccdcc8-1283-4e94-93bd-2d6820d5afaa-parameters",
        "parameter": [ {
          "name": "subject",
          "valueString": "50c6997f-0aab-4baa-af63-a2d05a2ad3ac"
        } ]
      } ],
      "extension": [ {
        "url": "http://hl7.org/fhir/us/cqfmeasures/StructureDefinition/cqfm-inputParameters",
        "valueReference": {
          "reference": "#83ccdcc8-1283-4e94-93bd-2d6820d5afaa-parameters"
        }
      }, {
        "url": "http://hl7.org/fhir/us/cqfmeasures/StructureDefinition/cqfm-testCaseDescription",
        "valueMarkdown": "Patient w/ a THA Procedure 11/1, Initial Hip Assessment 90 days before THA Procedure(8/3), and FollowUp Hip Assessment HOOS 425 days after THA Procedure (12/30)"
      } ],
      "modifierExtension": [ {
        "url": "http://hl7.org/fhir/us/cqfmeasures/StructureDefinition/cqfm-isTestCase",
        "valueBoolean": true
      } ],
      "status": "complete",
      "type": "individual",
      "measure": "https://madie.cms.gov/Measure/FunctionalStatusAssessmentforTotalHipReplacementFHIR",
      "period": {
        "start": "2025-01-01",
        "end": "2025-12-31"
      },
      "group": [ {
        "population": [ {
          "code": {
            "coding": [ {
              "system": "http://terminology.hl7.org/CodeSystem/measure-population",
              "code": "initial-population",
              "display": "Initial Population"
            } ]
          },
          "count": 1
        }, {
          "code": {
            "coding": [ {
              "system": "http://terminology.hl7.org/CodeSystem/measure-population",
              "code": "denominator",
              "display": "Denominator"
            } ]
          },
          "count": 1
        }, {
          "code": {
            "coding": [ {
              "system": "http://terminology.hl7.org/CodeSystem/measure-population",
              "code": "denominator-exclusion",
              "display": "Denominator Exclusion"
            } ]
          },
          "count": 0
        }, {
          "code": {
            "coding": [ {
              "system": "http://terminology.hl7.org/CodeSystem/measure-population",
              "code": "numerator",
              "display": "Numerator"
            } ]
          },
          "count": 1
        } ]
      } ],
      "evaluatedResource": [ {
        "reference": "https://madie.cms.gov/Patient/50c6997f-0aab-4baa-af63-a2d05a2ad3ac"
      }, {
        "reference": "https://madie.cms.gov/Procedure/Procedure-33"
      }, {
        "reference": "https://madie.cms.gov/Encounter/Encounter-33"
      }, {
        "reference": "https://madie.cms.gov/Observation/Observation-33.1-1"
      }, {
        "reference": "https://madie.cms.gov/Observation/Observation-33.1-2"
      }, {
        "reference": "https://madie.cms.gov/Observation/Observation-33.1-3"
      }, {
        "reference": "https://madie.cms.gov/Observation/Observation-33.1-4"
      }, {
        "reference": "https://madie.cms.gov/Observation/Observation-33.1-5"
      }, {
        "reference": "https://madie.cms.gov/Observation/Observation-33.2-1"
      }, {
        "reference": "https://madie.cms.gov/Observation/Observation-33.2-2"
      }, {
        "reference": "https://madie.cms.gov/Observation/Observation-33.2-3"
      }, {
        "reference": "https://madie.cms.gov/Observation/Observation-33.2-4"
      }, {
        "reference": "https://madie.cms.gov/Observation/Observation-33.2-5"
      } ]
    },
    "request": {
      "method": "POST",
      "url": "MeasureReport/12c3cceb-8269-496a-8b47-19c7eca0a1c6"
    }
  } ]
}