{
  "resourceType": "Bundle",
  "id": "Patient-4-IPPass-ContraceptiveMedsDurMP",
  "type": "transaction",
  "entry": [ {
    "fullUrl": "https://madie.cms.gov/Patient/6e31a1eb-0d32-4a9b-aa86-ee34436f99c1",
    "resource": {
      "resourceType": "Patient",
      "id": "6e31a1eb-0d32-4a9b-aa86-ee34436f99c1",
      "meta": {
        "profile": [ "http://hl7.org/fhir/us/qicore/StructureDefinition/qicore-patient" ]
      },
      "extension": [ {
        "url": "http://hl7.org/fhir/us/core/StructureDefinition/us-core-race",
        "extension": [ {
          "url": "ombCategory",
          "valueCoding": {
            "system": "urn:oid:2.16.840.1.113883.6.238",
            "code": "2028-9",
            "display": "Asian"
          }
        }, {
          "url": "text",
          "valueString": "Asian"
        } ]
      }, {
        "url": "http://hl7.org/fhir/us/core/StructureDefinition/us-core-ethnicity",
        "extension": [ {
          "url": "ombCategory",
          "valueCoding": {
            "system": "urn:oid:2.16.840.1.113883.6.238",
            "code": "2135-2",
            "display": "Hispanic or Latino"
          }
        }, {
          "url": "text",
          "valueString": "Hispanic or Latino"
        } ]
      } ],
      "identifier": [ {
        "system": "http://hospital.smarthealthit.org",
        "value": "999999995"
      } ],
      "name": [ {
        "family": "Bertha",
        "given": [ "Betty" ]
      } ],
      "gender": "female",
      "birthDate": "2001-12-31"
    },
    "request": {
      "method": "PUT",
      "url": "Patient/6e31a1eb-0d32-4a9b-aa86-ee34436f99c1"
    }
  }, {
    "fullUrl": "https://madie.cms.gov/Encounter/Encounter-4",
    "resource": {
      "resourceType": "Encounter",
      "id": "Encounter-4",
      "meta": {
        "profile": [ "http://hl7.org/fhir/us/qicore/StructureDefinition/qicore-encounter" ]
      },
      "status": "finished",
      "class": {
        "system": "http://terminology.hl7.org/CodeSystem/v3-ActCode",
        "code": "AMB",
        "display": "ambulatory"
      },
      "type": [ {
        "coding": [ {
          "system": "http://snomed.info/sct",
          "code": "185463005",
          "display": "Visit out of hours (procedure)"
        } ]
      } ],
      "subject": {
        "reference": "Patient/6e31a1eb-0d32-4a9b-aa86-ee34436f99c1"
      },
      "period": {
        "start": "2025-01-01T00:00:00.000Z",
        "end": "2025-01-01T00:15:00.000Z"
      }
    },
    "request": {
      "method": "PUT",
      "url": "Encounter/Encounter-4"
    }
  }, {
    "fullUrl": "https://madie.cms.gov/MedicationRequest/MedicationRequest-1",
    "resource": {
      "resourceType": "MedicationRequest",
      "id": "MedicationRequest-1",
      "meta": {
        "profile": [ "http://hl7.org/fhir/us/qicore/StructureDefinition/qicore-medicationrequest" ]
      },
      "status": "active",
      "intent": "order",
      "category": [ {
        "coding": [ {
          "system": "http://terminology.hl7.org/CodeSystem/medicationrequest-category",
          "code": "discharge",
          "display": "Discharge"
        } ]
      } ],
      "medicationCodeableConcept": {
        "coding": [ {
          "system": "http://www.nlm.nih.gov/research/umls/rxnorm",
          "code": "1000126",
          "display": "1 ML medroxyprogesterone acetate 150 MG/ML Injection",
          "userSelected": true
        } ]
      },
      "subject": {
        "reference": "Patient/6e31a1eb-0d32-4a9b-aa86-ee34436f99c1"
      },
      "authoredOn": "2025-12-30T00:00:00.000Z",
      "requester": {
        "reference": "Practitioner/practitioner-123456"
      },
      "dosageInstruction": [ {
        "timing": {
          "repeat": {
            "boundsPeriod": {
              "start": "2025-12-30T00:00:00.000Z",
              "end": "2026-01-01T00:00:00.000Z"
            }
          }
        }
      } ]
    },
    "request": {
      "method": "PUT",
      "url": "MedicationRequest/MedicationRequest-1"
    }
  }, {
    "fullUrl": "https://madie.cms.gov/MeasureReport/53f53671-6503-4e61-80ba-ac110a6d1393",
    "resource": {
      "resourceType": "MeasureReport",
      "id": "53f53671-6503-4e61-80ba-ac110a6d1393",
      "meta": {
        "profile": [ "http://hl7.org/fhir/us/cqfmeasures/StructureDefinition/test-case-cqfm" ]
      },
      "contained": [ {
        "resourceType": "Parameters",
        "id": "4b37bd01-8697-4e89-b990-0039ccf57723-parameters",
        "parameter": [ {
          "name": "subject",
          "valueString": "6e31a1eb-0d32-4a9b-aa86-ee34436f99c1"
        } ]
      } ],
      "extension": [ {
        "url": "http://hl7.org/fhir/us/cqfmeasures/StructureDefinition/cqfm-inputParameters",
        "valueReference": {
          "reference": "#4b37bd01-8697-4e89-b990-0039ccf57723-parameters"
        }
      }, {
        "url": "http://hl7.org/fhir/us/cqfmeasures/StructureDefinition/cqfm-testCaseDescription",
        "valueMarkdown": "Contraceptive medications active during the measurement period"
      } ],
      "modifierExtension": [ {
        "url": "http://hl7.org/fhir/us/cqfmeasures/StructureDefinition/cqfm-isTestCase",
        "valueBoolean": true
      } ],
      "status": "complete",
      "type": "individual",
      "measure": "https://madie.cms.gov/Measure/ChlamydiaScreeninginWomenFHIR",
      "period": {
        "start": "2025-01-01",
        "end": "2025-12-31"
      },
      "group": [ {
        "population": [ {
          "code": {
            "coding": [ {
              "system": "http://terminology.hl7.org/CodeSystem/measure-population",
              "code": "initial-population",
              "display": "Initial Population"
            } ]
          },
          "count": 1
        }, {
          "code": {
            "coding": [ {
              "system": "http://terminology.hl7.org/CodeSystem/measure-population",
              "code": "denominator",
              "display": "Denominator"
            } ]
          },
          "count": 1
        }, {
          "code": {
            "coding": [ {
              "system": "http://terminology.hl7.org/CodeSystem/measure-population",
              "code": "denominator-exclusion",
              "display": "Denominator Exclusion"
            } ]
          },
          "count": 0
        }, {
          "code": {
            "coding": [ {
              "system": "http://terminology.hl7.org/CodeSystem/measure-population",
              "code": "numerator",
              "display": "Numerator"
            } ]
          },
          "count": 0
        } ]
      } ],
      "evaluatedResource": [ {
        "reference": "Patient/6e31a1eb-0d32-4a9b-aa86-ee34436f99c1"
      }, {
        "reference": "Encounter/Encounter-4"
      }, {
        "reference": "MedicationRequest/MedicationRequest-1"
      } ]
    },
    "request": {
      "method": "PUT",
      "url": "MeasureReport/53f53671-6503-4e61-80ba-ac110a6d1393"
    }
  } ]
}