{"resourceType":"Bundle","id":"tests-e904e28b-ec42-4ca5-8dab-f1cf72f705e6-bundle","type":"transaction","entry":[{"fullUrl":"https://madie.cms.gov/Patient/e904e28b-ec42-4ca5-8dab-f1cf72f705e6","resource":{"resourceType":"Patient","id":"e904e28b-ec42-4ca5-8dab-f1cf72f705e6","meta":{"profile":["http://hl7.org/fhir/us/qicore/StructureDefinition/qicore-patient"]},"extension":[{"url":"http://hl7.org/fhir/us/core/StructureDefinition/us-core-race","extension":[{"url":"ombCategory","valueCoding":{"system":"urn:oid:2.16.840.1.113883.6.238","code":"2028-9","display":"Asian"}},{"url":"text","valueString":"Asian"}]},{"url":"http://hl7.org/fhir/us/core/StructureDefinition/us-core-ethnicity","extension":[{"url":"ombCategory","valueCoding":{"system":"urn:oid:2.16.840.1.113883.6.238","code":"2135-2","display":"Hispanic or Latino"}},{"url":"text","valueString":"Hispanic or Latino"}]}],"identifier":[{"system":"http://hospital.smarthealthit.org","value":"999999995"}],"name":[{"family":"Bertha","given":["Betty"]}],"gender":"female","birthDate":"1979-01-01"},"request":{"method":"PUT","url":"Patient/e904e28b-ec42-4ca5-8dab-f1cf72f705e6"}},{"fullUrl":"https://madie.cms.gov/Encounter/Encounter-23","resource":{"resourceType":"Encounter","id":"13da962f-1616-47b2-bd60-3d4756345937","meta":{"profile":["http://hl7.org/fhir/us/qicore/StructureDefinition/qicore-encounter"]},"status":"finished","class":{"system":"http://terminology.hl7.org/CodeSystem/v3-ActCode","code":"AMB","display":"ambulatory"},"type":[{"coding":[{"system":"http://snomed.info/sct","code":"185317003","display":"Telephone encounter (procedure)"}]}],"subject":{"reference":"Patient/e904e28b-ec42-4ca5-8dab-f1cf72f705e6"},"period":{"start":"2025-01-01T01:00:00.000Z","end":"2025-01-01T01:15:00.000Z"}},"request":{"method":"PUT","url":"Encounter/13da962f-1616-47b2-bd60-3d4756345937"}},{"fullUrl":"https://madie.cms.gov/Procedure/Procedure-2","resource":{"resourceType":"Procedure","id":"993fab29-ab27-4f59-8beb-bcb85821af2d","meta":{"profile":["http://hl7.org/fhir/us/qicore/StructureDefinition/qicore-procedure"]},"extension":[{"url":"http://hl7.org/fhir/us/qicore/StructureDefinition/qicore-recorded","valueDateTime":"2021-01-01T01:00:00.000Z"}],"status":"completed","code":{"coding":[{"system":"http://snomed.info/sct","code":"1217117008","display":"Endoscopic examination of lower bowel and sampling for bacterial overgrowth (procedure))"}]},"subject":{"reference":"Patient/e904e28b-ec42-4ca5-8dab-f1cf72f705e6"},"performedPeriod":{"start":"2021-01-01T01:00:00.000Z","end":"2021-01-01T01:15:00.000Z"}},"request":{"method":"PUT","url":"Procedure/993fab29-ab27-4f59-8beb-bcb85821af2d"}},{"fullUrl":"https://madie.cms.gov/MeasureReport/2576ac8f-e2e2-41b5-985f-9e9977f4e742","resource":{"resourceType":"MeasureReport","id":"2576ac8f-e2e2-41b5-985f-9e9977f4e742","meta":{"profile":["http://hl7.org/fhir/us/cqfmeasures/StructureDefinition/test-case-cqfm"]},"contained":[{"resourceType":"Parameters","id":"b8d9c170-6826-4029-aa69-8167e6db9f07-parameters","parameter":[{"name":"subject","valueString":"e904e28b-ec42-4ca5-8dab-f1cf72f705e6"}]}],"extension":[{"url":"http://hl7.org/fhir/us/cqfmeasures/StructureDefinition/cqfm-inputParameters","valueReference":{"reference":"#b8d9c170-6826-4029-aa69-8167e6db9f07-parameters"}},{"url":"http://hl7.org/fhir/us/cqfmeasures/StructureDefinition/cqfm-testCaseDescription","valueMarkdown":"Patient has a flexible sigmoidoscopy four years prior to the measurement period."}],"modifierExtension":[{"url":"http://hl7.org/fhir/us/cqfmeasures/StructureDefinition/cqfm-isTestCase","valueBoolean":true}],"status":"complete","type":"individual","measure":"https://madie.cms.gov/Measure/ColonCancerScreeningFHIR","period":{"start":"2025-01-01","end":"2025-12-31"},"group":[{"population":[{"code":{"coding":[{"system":"http://terminology.hl7.org/CodeSystem/measure-population","code":"initial-population","display":"Initial Population"}]},"count":1},{"code":{"coding":[{"system":"http://terminology.hl7.org/CodeSystem/measure-population","code":"denominator","display":"Denominator"}]},"count":1},{"code":{"coding":[{"system":"http://terminology.hl7.org/CodeSystem/measure-population","code":"denominator-exclusion","display":"Denominator Exclusion"}]},"count":0},{"code":{"coding":[{"system":"http://terminology.hl7.org/CodeSystem/measure-population","code":"numerator","display":"Numerator"}]},"count":1}]}]},"request":{"method":"PUT","url":"MeasureReport/2576ac8f-e2e2-41b5-985f-9e9977f4e742"}}]}