{"resourceType":"Bundle","id":"tests-21d5ce7c-6116-4cf3-a2ab-10e52c4295d0-bundle","type":"transaction","entry":[{"fullUrl":"https://madie.cms.gov/Patient/21d5ce7c-6116-4cf3-a2ab-10e52c4295d0","resource":{"resourceType":"Patient","id":"21d5ce7c-6116-4cf3-a2ab-10e52c4295d0","meta":{"profile":["http://hl7.org/fhir/us/qicore/StructureDefinition/qicore-patient"]},"extension":[{"url":"http://hl7.org/fhir/us/core/StructureDefinition/us-core-race","extension":[{"url":"ombCategory","valueCoding":{"system":"urn:oid:2.16.840.1.113883.6.238","code":"2106-3","display":"White"}},{"url":"text","valueString":"White"}]},{"url":"http://hl7.org/fhir/us/core/StructureDefinition/us-core-ethnicity","extension":[{"url":"ombCategory","valueCoding":{"system":"urn:oid:2.16.840.1.113883.6.238","code":"2186-5","display":"Not Hispanic or Latino"}},{"url":"text","valueString":"Not Hispanic or Latino"}]}],"identifier":[{"type":{"coding":[{"system":"http://terminology.hl7.org/CodeSystem/v2-0203","code":"MR"}]},"system":"https://bonnie-fhir.healthit.gov/","value":"6067461d98086b57ea5acf1b"}],"active":true,"name":[{"use":"usual","family":"DENEXCEPPass","given":["AllergyBetaxololBeforeLastEnc"]}],"gender":"male","birthDate":"1952-04-17"},"request":{"method":"PUT","url":"Patient/21d5ce7c-6116-4cf3-a2ab-10e52c4295d0"}},{"fullUrl":"https://madie.cms.gov/AllergyIntolerance/325419849486513513153","resource":{"resourceType":"AllergyIntolerance","id":"5a6f8059-d985-4c98-b1ef-5ae415fc8992","meta":{"profile":["http://hl7.org/fhir/us/qicore/StructureDefinition/qicore-allergyintolerance"]},"clinicalStatus":{"coding":[{"system":"http://terminology.hl7.org/CodeSystem/allergyintolerance-clinical","code":"active"}]},"verificationStatus":{"coding":[{"system":"http://terminology.hl7.org/CodeSystem/allergyintolerance-verification","code":"confirmed"}]},"type":"allergy","criticality":"high","code":{"coding":[{"system":"http://www.nlm.nih.gov/research/umls/rxnorm","version":"04032023","code":"1520","display":"betaxolol"}]},"patient":{"reference":"Patient/21d5ce7c-6116-4cf3-a2ab-10e52c4295d0"},"onsetDateTime":"2024-02-01","recordedDate":"2024-02-01T14:00:00+00:00"},"request":{"method":"PUT","url":"AllergyIntolerance/5a6f8059-d985-4c98-b1ef-5ae415fc8992"}},{"fullUrl":"https://madie.cms.gov/Encounter/5ce4bd6cb8484631adbc3dee","resource":{"resourceType":"Encounter","id":"4a64f73b-7207-4ec1-976d-560a0e414523","meta":{"profile":["http://hl7.org/fhir/us/qicore/StructureDefinition/qicore-encounter"]},"status":"finished","class":{"system":"http://terminology.hl7.org/CodeSystem/v3-ActCode","code":"AMB","display":"ambulatory"},"type":[{"coding":[{"system":"http://www.ama-assn.org/go/cpt","version":"2024","code":"99213"}]}],"subject":{"reference":"Patient/21d5ce7c-6116-4cf3-a2ab-10e52c4295d0"},"period":{"start":"2025-05-19T14:40:00+00:00","end":"2025-05-19T14:40:00+00:00"},"length":{"value":0,"unit":"days"}},"request":{"method":"PUT","url":"Encounter/4a64f73b-7207-4ec1-976d-560a0e414523"}},{"fullUrl":"https://madie.cms.gov/Encounter/5ce4bd6cb8484631adbc3def","resource":{"resourceType":"Encounter","id":"3372f8f9-8953-49da-bdc7-b2c663b0a4bb","meta":{"profile":["http://hl7.org/fhir/us/qicore/StructureDefinition/qicore-encounter"]},"status":"finished","class":{"system":"http://terminology.hl7.org/CodeSystem/v3-ActCode","code":"AMB","display":"ambulatory"},"type":[{"coding":[{"system":"http://www.ama-assn.org/go/cpt","version":"2024","code":"99212"}]}],"subject":{"reference":"Patient/21d5ce7c-6116-4cf3-a2ab-10e52c4295d0"},"period":{"start":"2025-07-03T11:50:00+00:00","end":"2025-07-03T11:50:00+00:00"},"length":{"value":0,"unit":"days"}},"request":{"method":"PUT","url":"Encounter/3372f8f9-8953-49da-bdc7-b2c663b0a4bb"}},{"fullUrl":"https://madie.cms.gov/Condition/5ce4bd6cb8484631adbc3deb","resource":{"resourceType":"Condition","id":"6e58ba09-4b7e-4573-ad22-41a8cf02a165","meta":{"profile":["http://hl7.org/fhir/us/qicore/StructureDefinition/qicore-condition"]},"clinicalStatus":{"coding":[{"system":"http://terminology.hl7.org/CodeSystem/condition-clinical","code":"active","display":"Active"}]},"category":[{"coding":[{"system":"http://terminology.hl7.org/CodeSystem/condition-category","code":"problem-list-item","display":"Problem List Item"}]}],"code":{"coding":[{"system":"http://hl7.org/fhir/sid/icd-10-cm","version":"2024","code":"I44.1"}]},"subject":{"reference":"Patient/21d5ce7c-6116-4cf3-a2ab-10e52c4295d0"},"onsetPeriod":{"start":"2025-02-03T14:40:00+00:00"}},"request":{"method":"PUT","url":"Condition/6e58ba09-4b7e-4573-ad22-41a8cf02a165"}},{"fullUrl":"https://madie.cms.gov/Condition/5ce4bd6cb8484631adbc3dec","resource":{"resourceType":"Condition","id":"6c36f41f-625a-483b-a62d-87d2c2319f60","meta":{"profile":["http://hl7.org/fhir/us/qicore/StructureDefinition/qicore-condition"]},"clinicalStatus":{"coding":[{"system":"http://terminology.hl7.org/CodeSystem/condition-clinical","code":"active","display":"Active"}]},"verificationStatus":{"coding":[{"system":"http://terminology.hl7.org/CodeSystem/condition-ver-status","code":"confirmed","display":"Confirmed","userSelected":true}]},"category":[{"coding":[{"system":"http://terminology.hl7.org/CodeSystem/condition-category","code":"problem-list-item","display":"Problem List Item"}]}],"code":{"coding":[{"system":"http://hl7.org/fhir/sid/icd-10-cm","version":"2024","code":"I11.0","display":"Hypertensive heart disease with heart failure"}]},"subject":{"reference":"Patient/21d5ce7c-6116-4cf3-a2ab-10e52c4295d0"},"onsetPeriod":{"start":"2025-04-16T10:00:00+00:00"}},"request":{"method":"PUT","url":"Condition/6c36f41f-625a-483b-a62d-87d2c2319f60"}},{"fullUrl":"https://madie.cms.gov/Observation/5ce4bd6cb8484631adbc3df1","resource":{"resourceType":"Observation","id":"84edda83-7a7b-4735-b218-eb24a21b2e5f","meta":{"profile":["http://hl7.org/fhir/us/qicore/StructureDefinition/qicore-observation"]},"status":"final","category":[{"coding":[{"system":"http://terminology.hl7.org/CodeSystem/observation-category","code":"imaging","display":"Imaging"}]}],"code":{"coding":[{"system":"http://loinc.org","version":"2.76","code":"8807-0"}]},"subject":{"reference":"Patient/21d5ce7c-6116-4cf3-a2ab-10e52c4295d0"},"effectivePeriod":{"start":"2025-04-01T11:50:00+00:00","end":"2025-04-01T11:50:00+00:00"},"valueQuantity":{"value":39,"unit":"%"}},"request":{"method":"PUT","url":"Observation/84edda83-7a7b-4735-b218-eb24a21b2e5f"}},{"fullUrl":"https://madie.cms.gov/Practitioner/64646464","resource":{"resourceType":"Practitioner","id":"48e5ceeb-1965-4b42-be2f-5335f3f17e9e","meta":{"profile":["http://hl7.org/fhir/us/qicore/StructureDefinition/qicore-practitioner"]},"identifier":[{"use":"temp","system":"urn:oid:2.16.840.1.113883.4.336","value":"Practitioner-23"}],"active":true,"name":[{"family":"Careful","given":["Adam"],"prefix":["Dr"]}],"address":[{"use":"home","line":["534 Erewhon St"],"city":"PleasantVille","state":"UT","postalCode":"84414"}],"qualification":[{"identifier":[{"system":"http://example.org/UniversityIdentifier","value":"12345"}],"code":{"coding":[{"system":"http://terminology.hl7.org/CodeSystem/v2-0360|2.7","code":"BS","display":"Bachelor of Science"}],"text":"Bachelor of Science"},"period":{"start":"1995"},"issuer":{"display":"Example University"}}]},"request":{"method":"PUT","url":"Practitioner/48e5ceeb-1965-4b42-be2f-5335f3f17e9e"}},{"fullUrl":"https://madie.cms.gov/Condition/47120050","resource":{"resourceType":"Condition","id":"c302c45c-63ae-416f-bdfb-d7619d1e1c70","meta":{"profile":["http://hl7.org/fhir/us/qicore/StructureDefinition/qicore-condition"]},"category":[{"coding":[{"system":"http://terminology.hl7.org/CodeSystem/condition-category","code":"problem-list-item","display":"Problem List Item"}]}],"code":{"coding":[{"system":"http://snomed.info/sct","version":"http://snomed.info/sct/731000124108/version/20240301","code":"981000124106","display":"Moderate left ventricular systolic dysfunction (disorder)"}]},"subject":{"reference":"Patient/21d5ce7c-6116-4cf3-a2ab-10e52c4295d0"}},"request":{"method":"PUT","url":"Condition/c302c45c-63ae-416f-bdfb-d7619d1e1c70"}},{"fullUrl":"https://madie.cms.gov/Condition/475900014","resource":{"resourceType":"Condition","id":"cfebb3b2-c3d5-4447-a4ec-c331dec63dd0","meta":{"profile":["http://hl7.org/fhir/us/qicore/StructureDefinition/qicore-condition"]},"clinicalStatus":{"coding":[{"system":"http://terminology.hl7.org/CodeSystem/condition-clinical","code":"active","display":"Active"}]},"category":[{"coding":[{"system":"http://terminology.hl7.org/CodeSystem/condition-category","code":"problem-list-item","display":"Problem List Item"}]}],"code":{"coding":[{"system":"http://snomed.info/sct","version":"http://snomed.info/sct/731000124108/version/20240301","code":"981000124106","display":"Moderate left ventricular systolic dysfunction (disorder)"}]},"subject":{"reference":"Patient/21d5ce7c-6116-4cf3-a2ab-10e52c4295d0"},"onsetPeriod":{"start":"2025-05-13T14:40:00.000+00:00"}},"request":{"method":"PUT","url":"Condition/cfebb3b2-c3d5-4447-a4ec-c331dec63dd0"}},{"fullUrl":"https://madie.cms.gov/MeasureReport/d747666e-d81c-4142-96db-bf77cc0a362b","resource":{"resourceType":"MeasureReport","id":"d747666e-d81c-4142-96db-bf77cc0a362b","meta":{"profile":["http://hl7.org/fhir/us/cqfmeasures/StructureDefinition/test-case-cqfm"]},"contained":[{"resourceType":"Parameters","id":"df107fbb-57fc-48c7-871e-a15e877fb447-parameters","parameter":[{"name":"subject","valueString":"21d5ce7c-6116-4cf3-a2ab-10e52c4295d0"}]}],"extension":[{"url":"http://hl7.org/fhir/us/cqfmeasures/StructureDefinition/cqfm-inputParameters","valueReference":{"reference":"#df107fbb-57fc-48c7-871e-a15e877fb447-parameters"}},{"url":"http://hl7.org/fhir/us/cqfmeasures/StructureDefinition/cqfm-testCaseDescription","valueMarkdown":"Patient falls in Denom. Exception due to allergy intolerance to beta blocker  (betaxolol) ingredient which overlap before date of LVSD diagnosis"}],"modifierExtension":[{"url":"http://hl7.org/fhir/us/cqfmeasures/StructureDefinition/cqfm-isTestCase","valueBoolean":true}],"status":"complete","type":"individual","measure":"https://madie.cms.gov/Measure/HFBetaBlockerTherapyforLVSDFHIR","period":{"start":"2025-01-01","end":"2025-12-31"},"group":[{"population":[{"code":{"coding":[{"system":"http://terminology.hl7.org/CodeSystem/measure-population","code":"initial-population","display":"Initial Population"}]},"count":1},{"code":{"coding":[{"system":"http://terminology.hl7.org/CodeSystem/measure-population","code":"denominator","display":"Denominator"}]},"count":1},{"code":{"coding":[{"system":"http://terminology.hl7.org/CodeSystem/measure-population","code":"denominator-exclusion","display":"Denominator Exclusion"}]},"count":0},{"code":{"coding":[{"system":"http://terminology.hl7.org/CodeSystem/measure-population","code":"numerator","display":"Numerator"}]},"count":0},{"code":{"coding":[{"system":"http://terminology.hl7.org/CodeSystem/measure-population","code":"denominator-exception","display":"Denominator Exception"}]},"count":1}]}]},"request":{"method":"PUT","url":"MeasureReport/d747666e-d81c-4142-96db-bf77cc0a362b"}}]}