{"resourceType":"Bundle","id":"tests-decebbd0-750f-4bb8-92ac-c6c88e331250-bundle","type":"transaction","entry":[{"fullUrl":"https://madie.cms.gov/Patient/decebbd0-750f-4bb8-92ac-c6c88e331250","resource":{"resourceType":"Patient","id":"decebbd0-750f-4bb8-92ac-c6c88e331250","meta":{"profile":["http://hl7.org/fhir/us/qicore/StructureDefinition/qicore-patient"]},"text":{"status":"generated","div":"<div xmlns=\"http://www.w3.org/1999/xhtml\"><div class=\"hapiHeaderText\">Risk_GastrointestinalDisease<b>RISKPass </b></div><table class=\"hapiPropertyTable\"><tbody><tr><td>Date of birth</td><td><span>01 February 2004</span></td></tr></tbody></table></div>"},"extension":[{"url":"http://hl7.org/fhir/us/core/StructureDefinition/us-core-race","extension":[{"url":"ombCategory","valueCoding":{"system":"urn:oid:2.16.840.1.113883.6.238","code":"1002-5","display":"American Indian or Alaska Native","userSelected":true}},{"url":"text","valueString":"American Indian or Alaska Native"}]},{"url":"http://hl7.org/fhir/us/core/StructureDefinition/us-core-ethnicity","extension":[{"url":"ombCategory","valueCoding":{"system":"urn:oid:2.16.840.1.113883.6.238","code":"2135-2","display":"Hispanic or Latino","userSelected":true}},{"url":"text","valueString":"Hispanic or Latino"}]}],"identifier":[{"type":{"coding":[{"system":"http://terminology.hl7.org/CodeSystem/v2-0203","code":"MR"}]},"system":"https://bonnie-fhir.healthit.gov/","value":"63594c7a6aee9629c82981df"}],"active":true,"name":[{"use":"usual","family":"RiskPass","given":["Risk_GastrointestinalDisease"]}],"gender":"female","birthDate":"2004-02-01"},"request":{"method":"PUT","url":"Patient/decebbd0-750f-4bb8-92ac-c6c88e331250"}},{"fullUrl":"https://madie.cms.gov/Observation/5f29baa26f0b7100008d8af1","resource":{"resourceType":"Observation","id":"6b009cb6-d3fc-4f42-acfe-0a1ad339498e","meta":{"profile":["http://hl7.org/fhir/us/qicore/StructureDefinition/qicore-observation"]},"status":"final","category":[{"coding":[{"system":"http://terminology.hl7.org/CodeSystem/observation-category","code":"exam","display":"exam","userSelected":true}]}],"code":{"coding":[{"system":"http://loinc.org","code":"93857-1"}]},"subject":{"reference":"Patient/decebbd0-750f-4bb8-92ac-c6c88e331250"},"effectiveDateTime":"2025-02-01T08:00:00.000+00:00","valueDateTime":"2025-02-01T08:00:00+00:00"},"request":{"method":"PUT","url":"Observation/6b009cb6-d3fc-4f42-acfe-0a1ad339498e"}},{"fullUrl":"https://madie.cms.gov/Observation/5f29bb016f0b7100008d8b15","resource":{"resourceType":"Observation","id":"3c57130e-cb62-42b5-840f-b90859b9825f","meta":{"profile":["http://hl7.org/fhir/us/qicore/StructureDefinition/qicore-observation"]},"status":"final","category":[{"coding":[{"system":"http://terminology.hl7.org/CodeSystem/observation-category","code":"exam","display":"exam","userSelected":true}]}],"code":{"coding":[{"system":"http://loinc.org","code":"11778-8"}]},"subject":{"reference":"Patient/decebbd0-750f-4bb8-92ac-c6c88e331250"},"effectiveDateTime":"2025-02-01T08:00:00.000+00:00","valueDateTime":"2025-02-01T00:00:00.000+00:00"},"request":{"method":"PUT","url":"Observation/3c57130e-cb62-42b5-840f-b90859b9825f"}},{"fullUrl":"https://madie.cms.gov/Encounter/5f21e66daca3e40000cb86cf","resource":{"resourceType":"Encounter","id":"a0488515-28f7-4d8e-b779-e3aa4685cc88","meta":{"profile":["http://hl7.org/fhir/us/qicore/StructureDefinition/qicore-encounter"]},"status":"finished","class":{"system":"http://terminology.hl7.org/CodeSystem/v3-ActCode","code":"IMP","display":"inpatient encounter"},"type":[{"coding":[{"system":"http://snomed.info/sct","code":"183452005"}]}],"subject":{"reference":"Patient/decebbd0-750f-4bb8-92ac-c6c88e331250"},"period":{"start":"2025-02-01T08:00:00.000Z","end":"2025-02-05T08:15:00.000Z"},"diagnosis":[{"extension":[{"url":"http://hl7.org/fhir/us/qicore/StructureDefinition/qicore-encounter-diagnosisPresentOnAdmission","valueCodeableConcept":{"coding":[{"system":"https://www.cms.gov/Medicare/Medicare-Fee-for-Service-Payment/HospitalAcqCond/Coding","code":"Y"}]}}],"condition":{"reference":"Condition/GastrointestinalDisease-81e0"}},{"extension":[{"url":"http://hl7.org/fhir/us/qicore/StructureDefinition/qicore-encounter-diagnosisPresentOnAdmission","valueCodeableConcept":{"coding":[{"system":"https://www.cms.gov/Medicare/Medicare-Fee-for-Service-Payment/HospitalAcqCond/Coding","code":"N"}]}}],"condition":{"reference":"Condition/severe-maternal-morbidity-diagnoses-adc1"}}]},"request":{"method":"PUT","url":"Encounter/a0488515-28f7-4d8e-b779-e3aa4685cc88"}},{"fullUrl":"https://madie.cms.gov/Procedure/5f21e716aca3e40000cb87ee","resource":{"resourceType":"Procedure","id":"3683ca96-ecb7-4d90-8ad9-c733497e36d1","meta":{"profile":["http://hl7.org/fhir/us/qicore/StructureDefinition/qicore-procedure"]},"extension":[{"url":"http://hl7.org/fhir/us/qicore/StructureDefinition/qicore-recorded","valueDateTime":"2013-04-05T09:35:00-04:00"}],"status":"completed","code":{"coding":[{"system":"http://snomed.info/sct","code":"10745001"}]},"subject":{"reference":"Patient/decebbd0-750f-4bb8-92ac-c6c88e331250"},"performedDateTime":"2025-02-01T08:00:00.000+00:00"},"request":{"method":"PUT","url":"Procedure/3683ca96-ecb7-4d90-8ad9-c733497e36d1"}},{"fullUrl":"https://madie.cms.gov/Condition/severe-maternal-morbidity-diagnoses-adc1","resource":{"resourceType":"Condition","id":"33b37de4-f184-4253-b844-c7e55a3e6815","meta":{"profile":["http://hl7.org/fhir/us/qicore/StructureDefinition/qicore-condition"]},"category":[{"coding":[{"system":"http://terminology.hl7.org/CodeSystem/condition-category","code":"encounter-diagnosis","display":"Encounter Diagnosis"}]}],"code":{"coding":[{"system":"http://hl7.org/fhir/sid/icd-10-cm","version":"2023","code":"A32.7","display":"Listerial sepsis","userSelected":true}]},"subject":{"reference":"Patient/decebbd0-750f-4bb8-92ac-c6c88e331250"},"recordedDate":"2025-10-26T08:00:00.000+00:00"},"request":{"method":"PUT","url":"Condition/33b37de4-f184-4253-b844-c7e55a3e6815"}},{"fullUrl":"https://madie.cms.gov/Condition/GastrointestinalDisease-81e0","resource":{"resourceType":"Condition","id":"c3f6fb7c-e227-4118-9991-1102983440fa","meta":{"profile":["http://hl7.org/fhir/us/qicore/StructureDefinition/qicore-condition"]},"category":[{"coding":[{"system":"http://terminology.hl7.org/CodeSystem/condition-category","code":"encounter-diagnosis","display":"Encounter Diagnosis"}]}],"code":{"coding":[{"system":"http://hl7.org/fhir/sid/icd-10-cm","version":"2023","code":"K50.00","display":"GI Disease","userSelected":true}]},"subject":{"reference":"Patient/decebbd0-750f-4bb8-92ac-c6c88e331250"},"recordedDate":"2025-10-26T08:00:00.000+00:00"},"request":{"method":"PUT","url":"Condition/c3f6fb7c-e227-4118-9991-1102983440fa"}},{"fullUrl":"https://madie.cms.gov/MeasureReport/054a498d-da96-4e5a-91d6-45d92769659c","resource":{"resourceType":"MeasureReport","id":"054a498d-da96-4e5a-91d6-45d92769659c","meta":{"profile":["http://hl7.org/fhir/us/cqfmeasures/StructureDefinition/test-case-cqfm"]},"contained":[{"resourceType":"Parameters","id":"42d9b896-4418-4241-b222-6a449f96b1b2-parameters","parameter":[{"name":"subject","valueString":"decebbd0-750f-4bb8-92ac-c6c88e331250"}]}],"extension":[{"url":"http://hl7.org/fhir/us/cqfmeasures/StructureDefinition/cqfm-inputParameters","valueReference":{"reference":"#42d9b896-4418-4241-b222-6a449f96b1b2-parameters"}},{"url":"http://hl7.org/fhir/us/cqfmeasures/StructureDefinition/cqfm-testCaseDescription","valueMarkdown":"Risk variable of gastrointestinal disease.\n\n"}],"modifierExtension":[{"url":"http://hl7.org/fhir/us/cqfmeasures/StructureDefinition/cqfm-isTestCase","valueBoolean":true}],"status":"complete","type":"individual","measure":"https://madie.cms.gov/Measure/SevereObstetricComplicationsFHIR","period":{"start":"2025-01-01","end":"2025-12-31"},"group":[{"population":[{"code":{"coding":[{"system":"http://terminology.hl7.org/CodeSystem/measure-population","code":"initial-population","display":"Initial Population"}]},"count":1},{"code":{"coding":[{"system":"http://terminology.hl7.org/CodeSystem/measure-population","code":"denominator","display":"Denominator"}]},"count":1},{"code":{"coding":[{"system":"http://terminology.hl7.org/CodeSystem/measure-population","code":"denominator-exclusion","display":"Denominator Exclusion"}]},"count":0},{"code":{"coding":[{"system":"http://terminology.hl7.org/CodeSystem/measure-population","code":"numerator","display":"Numerator"}]},"count":1},{"code":{"coding":[{"system":"http://terminology.hl7.org/CodeSystem/measure-population","code":"numerator-exclusion","display":"Numerator Exclusion"}]},"count":0}]}]},"request":{"method":"PUT","url":"MeasureReport/054a498d-da96-4e5a-91d6-45d92769659c"}}]}