{"resourceType":"Bundle","id":"tests-d8f01fe6-548f-4b41-aa9f-728bc511b33a-bundle","type":"transaction","entry":[{"fullUrl":"https://madie.cms.gov/Patient/d8f01fe6-548f-4b41-aa9f-728bc511b33a","resource":{"resourceType":"Patient","id":"d8f01fe6-548f-4b41-aa9f-728bc511b33a","meta":{"profile":["http://hl7.org/fhir/us/qicore/StructureDefinition/qicore-patient"]},"text":{"status":"generated","div":"<div xmlns=\"http://www.w3.org/1999/xhtml\"><div class=\"hapiHeaderText\">BloodTransfusionRelvDtTime1MinAftMidnightDayOfEDOBTriageHosp <b>NUMPass </b></div><table class=\"hapiPropertyTable\"><tbody><tr><td>Date of birth</td><td><span>01 February 2004</span></td></tr></tbody></table></div>"},"extension":[{"url":"http://hl7.org/fhir/us/core/StructureDefinition/us-core-race","extension":[{"url":"ombCategory","valueCoding":{"system":"urn:oid:2.16.840.1.113883.6.238","code":"1002-5","display":"American Indian or Alaska Native","userSelected":true}},{"url":"text","valueString":"American Indian or Alaska Native"}]},{"url":"http://hl7.org/fhir/us/core/StructureDefinition/us-core-ethnicity","extension":[{"url":"ombCategory","valueCoding":{"system":"urn:oid:2.16.840.1.113883.6.238","code":"2135-2","display":"Hispanic or Latino","userSelected":true}},{"url":"text","valueString":"Hispanic or Latino"}]}],"identifier":[{"type":{"coding":[{"system":"http://terminology.hl7.org/CodeSystem/v2-0203","code":"MR"}]},"system":"https://bonnie-fhir.healthit.gov/","value":"633b3f9f0968f80122503cdb"}],"active":true,"name":[{"use":"usual","family":"NUMPass","given":["BloodTransfusionRelvDtTime1MinAftMidnightDayOfEDOBTriageHosp"]}],"gender":"female","birthDate":"2004-02-01"},"request":{"method":"PUT","url":"Patient/d8f01fe6-548f-4b41-aa9f-728bc511b33a"}},{"fullUrl":"https://madie.cms.gov/Observation/5f29baa26f0b7100008d8af1","resource":{"resourceType":"Observation","id":"e4d4091f-6d07-49be-af75-b50cc878865c","meta":{"profile":["http://hl7.org/fhir/us/qicore/StructureDefinition/qicore-observation"]},"status":"final","category":[{"coding":[{"system":"http://terminology.hl7.org/CodeSystem/observation-category","code":"exam","display":"exam","userSelected":true}]}],"code":{"coding":[{"system":"http://loinc.org","code":"93857-1"}]},"subject":{"reference":"Patient/ed3ea9d2-94e4-4e67-b382-18147df9bac7"},"effectiveDateTime":"2025-02-01T08:00:00.000+00:00","valueDateTime":"2025-02-01T08:00:00+00:00"},"request":{"method":"PUT","url":"Observation/e4d4091f-6d07-49be-af75-b50cc878865c"}},{"fullUrl":"https://madie.cms.gov/Observation/5f2b23e36f0b7100008d9b59","resource":{"resourceType":"Observation","id":"bad3a594-9139-4518-b319-47797ad53ae9","meta":{"profile":["http://hl7.org/fhir/us/qicore/StructureDefinition/qicore-observation"]},"status":"final","category":[{"coding":[{"system":"http://terminology.hl7.org/CodeSystem/observation-category","code":"exam","display":"exam","userSelected":true}]}],"code":{"coding":[{"system":"http://loinc.org","code":"11884-4"}]},"subject":{"reference":"Patient/ed3ea9d2-94e4-4e67-b382-18147df9bac7"},"effectiveDateTime":"2025-02-01T08:00:00.000+00:00","valueQuantity":{"value":20.0,"system":"http://unitsofmeasure.org","code":"wk"}},"request":{"method":"PUT","url":"Observation/bad3a594-9139-4518-b319-47797ad53ae9"}},{"fullUrl":"https://madie.cms.gov/Observation/5f2b24a96f0b7100008d9c0d","resource":{"resourceType":"Observation","id":"09a5bdfb-7995-47d7-aeec-db64de647d25","meta":{"profile":["http://hl7.org/fhir/us/qicore/StructureDefinition/qicore-observation"]},"status":"final","category":[{"coding":[{"system":"http://terminology.hl7.org/CodeSystem/observation-category","code":"exam","display":"exam","userSelected":true}]}],"code":{"coding":[{"system":"http://loinc.org","code":"11884-4"}]},"subject":{"reference":"Patient/ed3ea9d2-94e4-4e67-b382-18147df9bac7"},"effectiveDateTime":"2025-02-01T08:01:00.000+00:00"},"request":{"method":"PUT","url":"Observation/09a5bdfb-7995-47d7-aeec-db64de647d25"}},{"fullUrl":"https://madie.cms.gov/Encounter/5f21e66daca3e40000cb86cf","resource":{"resourceType":"Encounter","id":"c6893de4-3af6-48a1-a13c-1193fcc85818","meta":{"profile":["http://hl7.org/fhir/us/qicore/StructureDefinition/qicore-encounter"]},"status":"finished","class":{"system":"http://terminology.hl7.org/CodeSystem/v3-ActCode","code":"IMP","display":"inpatient encounter"},"type":[{"coding":[{"system":"http://snomed.info/sct","code":"183452005"}]}],"subject":{"reference":"Patient/ed3ea9d2-94e4-4e67-b382-18147df9bac7"},"period":{"start":"2025-02-01T08:00:00.000Z","end":"2025-02-05T08:15:00.000Z"}},"request":{"method":"PUT","url":"Encounter/c6893de4-3af6-48a1-a13c-1193fcc85818"}},{"fullUrl":"https://madie.cms.gov/Coverage/5f2c54181c76ba5c99605813","resource":{"resourceType":"Coverage","id":"05d60965-d0c6-4062-982a-017b5f7114e0","status":"active","beneficiary":{"reference":"Patient/ed3ea9d2-94e4-4e67-b382-18147df9bac7"},"period":{"start":"2004-02-01T08:00:00.000Z"},"payor":[{"reference":"Organization/f7da4368-fb6d-4d73-a75b-f78024cbb18d"}]},"request":{"method":"PUT","url":"Coverage/05d60965-d0c6-4062-982a-017b5f7114e0"}},{"fullUrl":"https://madie.cms.gov/Procedure/5f21e716aca3e40000cb87ee","resource":{"resourceType":"Procedure","id":"5babae26-43a6-43ed-bab2-9799e4ece006","meta":{"profile":["http://hl7.org/fhir/us/qicore/StructureDefinition/qicore-procedure"]},"extension":[{"url":"http://hl7.org/fhir/us/qicore/StructureDefinition/qicore-recorded","valueDateTime":"2013-04-05T09:35:00-04:00"}],"status":"completed","code":{"coding":[{"system":"http://snomed.info/sct","code":"10745001"}]},"subject":{"reference":"Patient/ed3ea9d2-94e4-4e67-b382-18147df9bac7"},"performedPeriod":{"start":"2025-02-01T08:00:00.000Z","end":"2025-02-05T08:15:00.000Z"}},"request":{"method":"PUT","url":"Procedure/5babae26-43a6-43ed-bab2-9799e4ece006"}},{"fullUrl":"https://madie.cms.gov/Procedure/bloodtransfusioncb87ee","resource":{"resourceType":"Procedure","id":"c0608e6d-ac49-4ce0-9c43-b694986ee08b","meta":{"profile":["http://hl7.org/fhir/us/qicore/StructureDefinition/qicore-procedure"]},"extension":[{"url":"http://hl7.org/fhir/us/qicore/StructureDefinition/qicore-recorded","valueDateTime":"2025-02-01T00:01:00-04:00"}],"status":"completed","code":{"coding":[{"system":"http://snomed.info/sct","code":"11397000"}]},"subject":{"reference":"Patient/ed3ea9d2-94e4-4e67-b382-18147df9bac7"},"performedPeriod":{"start":"2025-02-01T08:00:00.000Z","end":"2025-02-05T08:15:00.000Z"}},"request":{"method":"PUT","url":"Procedure/c0608e6d-ac49-4ce0-9c43-b694986ee08b"}},{"fullUrl":"https://madie.cms.gov/Organization/123456","resource":{"resourceType":"Organization","id":"f7da4368-fb6d-4d73-a75b-f78024cbb18d","meta":{"profile":["http://hl7.org/fhir/us/qicore/StructureDefinition/qicore-organization"]},"identifier":[{"use":"temp","system":"urn:oid:2.16.840.1.113883.4.4","value":"21-3259825"}],"active":true,"type":[{"coding":[{"system":"http://terminology.hl7.org/CodeSystem/organization-type","code":"pay","display":"Payer"}]}],"name":"Blue Cross Blue Shield of Texas","telecom":[{"system":"phone","value":"(+1) 972-766-6900"}],"address":[{"use":"billing","type":"postal","line":["P.O. Box 660044"],"city":"Dallas","state":"TX","postalCode":"75266-0044","country":"USA"}]},"request":{"method":"PUT","url":"Organization/f7da4368-fb6d-4d73-a75b-f78024cbb18d"}},{"fullUrl":"https://madie.cms.gov/Practitioner/practitioner-123456","resource":{"resourceType":"Practitioner","id":"da912b8b-a3d5-4ed6-9544-57bd6241f003","identifier":[{"system":"http://hl7.org/fhir/sid/us-npi","value":"123456"}],"name":[{"family":"Evil","prefix":["Dr"]}]},"request":{"method":"PUT","url":"Practitioner/da912b8b-a3d5-4ed6-9544-57bd6241f003"}},{"fullUrl":"https://madie.cms.gov/MeasureReport/b3393155-d722-47a0-aec6-528e2f8587ae","resource":{"resourceType":"MeasureReport","id":"b3393155-d722-47a0-aec6-528e2f8587ae","meta":{"profile":["http://hl7.org/fhir/us/cqfmeasures/StructureDefinition/test-case-cqfm"]},"contained":[{"resourceType":"Parameters","id":"2ebc935c-9c9e-421d-9c74-5fbc6b70ea1f-parameters","parameter":[{"name":"subject","valueString":"d8f01fe6-548f-4b41-aa9f-728bc511b33a"}]}],"extension":[{"url":"http://hl7.org/fhir/us/cqfmeasures/StructureDefinition/cqfm-inputParameters","valueReference":{"reference":"#2ebc935c-9c9e-421d-9c74-5fbc6b70ea1f-parameters"}},{"url":"http://hl7.org/fhir/us/cqfmeasures/StructureDefinition/cqfm-testCaseDescription","valueMarkdown":"BloodTransfusionRelvDtTime1 Min AftMidnightDayOfEDOBTriageHosp"}],"modifierExtension":[{"url":"http://hl7.org/fhir/us/cqfmeasures/StructureDefinition/cqfm-isTestCase","valueBoolean":true}],"status":"complete","type":"individual","measure":"https://madie.cms.gov/Measure/SevereObstetricComplicationsFHIR","period":{"start":"2025-01-01","end":"2025-12-31"},"group":[{"population":[{"code":{"coding":[{"system":"http://terminology.hl7.org/CodeSystem/measure-population","code":"initial-population","display":"Initial Population"}]},"count":1},{"code":{"coding":[{"system":"http://terminology.hl7.org/CodeSystem/measure-population","code":"denominator","display":"Denominator"}]},"count":1},{"code":{"coding":[{"system":"http://terminology.hl7.org/CodeSystem/measure-population","code":"denominator-exclusion","display":"Denominator Exclusion"}]},"count":0},{"code":{"coding":[{"system":"http://terminology.hl7.org/CodeSystem/measure-population","code":"numerator","display":"Numerator"}]},"count":1},{"code":{"coding":[{"system":"http://terminology.hl7.org/CodeSystem/measure-population","code":"numerator-exclusion","display":"Numerator Exclusion"}]},"count":0}]}]},"request":{"method":"PUT","url":"MeasureReport/b3393155-d722-47a0-aec6-528e2f8587ae"}}]}