{"resourceType":"Bundle","id":"tests-2a0cc990-ccf5-466f-b8e2-df24a6f2cb98-bundle","type":"transaction","entry":[{"fullUrl":"https://madie.cms.gov/Patient/2a0cc990-ccf5-466f-b8e2-df24a6f2cb98","resource":{"resourceType":"Patient","id":"2a0cc990-ccf5-466f-b8e2-df24a6f2cb98","meta":{"profile":["http://hl7.org/fhir/us/qicore/StructureDefinition/qicore-patient"]},"extension":[{"url":"http://hl7.org/fhir/us/core/StructureDefinition/us-core-race","extension":[{"url":"ombCategory","valueCoding":{"system":"urn:oid:2.16.840.1.113883.6.238","code":"1002-5","display":"American Indian or Alaska Native","userSelected":true}},{"url":"text","valueString":"American Indian or Alaska Native"}]},{"url":"http://hl7.org/fhir/us/core/StructureDefinition/us-core-ethnicity","extension":[{"url":"ombCategory","valueCoding":{"system":"urn:oid:2.16.840.1.113883.6.238","code":"2135-2","display":"Hispanic or Latino","userSelected":true}},{"url":"text","valueString":"Hispanic or Latino"}]}],"identifier":[{"type":{"coding":[{"system":"http://terminology.hl7.org/CodeSystem/v2-0203","code":"MR"}]},"system":"https://bonnie-fhir.healthit.gov/","value":"6353045e224f3b053967124c"}],"name":[{"family":"DENOMPass","given":["EDD24Hrs1MinB4TimeOfDel"]}],"gender":"female","birthDate":"2004-02-01"},"request":{"method":"PUT","url":"Patient/2a0cc990-ccf5-466f-b8e2-df24a6f2cb98"}},{"fullUrl":"https://madie.cms.gov/Encounter/encounter-inpatient-1248","resource":{"resourceType":"Encounter","id":"24ddf03d-1f11-4274-b692-dc3e4b8af159","meta":{"profile":["http://hl7.org/fhir/us/qicore/StructureDefinition/qicore-encounter"]},"status":"finished","class":{"system":"http://terminology.hl7.org/CodeSystem/v3-ActCode","code":"IMP","display":"inpatient encounter"},"type":[{"coding":[{"system":"http://snomed.info/sct","version":"2022-09","code":"183452005","display":"Emergency hospital admission (procedure)","userSelected":true}]}],"subject":{"reference":"Patient/2a0cc990-ccf5-466f-b8e2-df24a6f2cb98"},"period":{"start":"2025-02-01T08:00:00.000+00:00","end":"2025-02-05T08:15:00.000+00:00"}},"request":{"method":"PUT","url":"Encounter/24ddf03d-1f11-4274-b692-dc3e4b8af159"}},{"fullUrl":"https://madie.cms.gov/Procedure/delivery-procedures-1249","resource":{"resourceType":"Procedure","id":"395c2172-fe62-45c9-ba87-108a6c68bf2a","meta":{"profile":["http://hl7.org/fhir/us/qicore/StructureDefinition/qicore-procedure"]},"extension":[{"url":"http://hl7.org/fhir/us/qicore/StructureDefinition/qicore-recorded","valueDateTime":"2013-04-05T09:35:00-04:00"}],"status":"completed","code":{"coding":[{"system":"http://snomed.info/sct","version":"2022-09","code":"10745001","display":"Delivery of transverse presentation (procedure)","userSelected":true}]},"subject":{"reference":"Patient/2a0cc990-ccf5-466f-b8e2-df24a6f2cb98"},"performedPeriod":{"start":"2025-02-01T08:00:00.000+00:00","end":"2025-02-05T08:15:00.000+00:00"}},"request":{"method":"PUT","url":"Procedure/395c2172-fe62-45c9-ba87-108a6c68bf2a"}},{"fullUrl":"https://madie.cms.gov/Observation/date-and-time-of-obstetric-delivery-124a","resource":{"resourceType":"Observation","id":"f270243e-5489-4ae0-866f-4bab2091dae6","meta":{"profile":["http://hl7.org/fhir/us/qicore/StructureDefinition/qicore-observation"]},"status":"final","category":[{"coding":[{"system":"http://terminology.hl7.org/CodeSystem/observation-category","code":"exam","display":"exam","userSelected":true}]}],"code":{"coding":[{"system":"http://loinc.org","code":"93857-1","display":"Date and time of obstetric delivery","userSelected":true}]},"subject":{"reference":"Patient/2a0cc990-ccf5-466f-b8e2-df24a6f2cb98"},"effectiveDateTime":"2025-02-01T08:00:00.000+00:00","valueDateTime":"2025-02-01T08:00:00.000+00:00"},"request":{"method":"PUT","url":"Observation/f270243e-5489-4ae0-866f-4bab2091dae6"}},{"fullUrl":"https://madie.cms.gov/Observation/delivery-date-estimated-124b","resource":{"resourceType":"Observation","id":"05360705-c86e-4211-95a3-8e4ae566c5cd","meta":{"profile":["http://hl7.org/fhir/us/qicore/StructureDefinition/qicore-observation"]},"status":"final","category":[{"coding":[{"system":"http://terminology.hl7.org/CodeSystem/observation-category","code":"exam","display":"exam","userSelected":true}]}],"code":{"coding":[{"system":"http://loinc.org","code":"11778-8","display":"Delivery date Estimated","userSelected":true}]},"subject":{"reference":"Patient/2a0cc990-ccf5-466f-b8e2-df24a6f2cb98"},"effectiveDateTime":"2025-02-01T08:01:00.000+00:00","valueDateTime":"2025-02-01T08:01:00.000+00:00"},"request":{"method":"PUT","url":"Observation/05360705-c86e-4211-95a3-8e4ae566c5cd"}},{"fullUrl":"https://madie.cms.gov/Coverage/1","resource":{"resourceType":"Coverage","id":"27454d9e-c94b-4530-b2a1-5ea68bf9275d","meta":{"profile":["http://hl7.org/fhir/us/qicore/StructureDefinition/qicore-coverage"]},"status":"active","beneficiary":{"reference":"Patient/2a0cc990-ccf5-466f-b8e2-df24a6f2cb98"},"payor":[{"reference":"Organization/3e899f33-84eb-4634-a770-a5a0bd7a80e7"}]},"request":{"method":"PUT","url":"Coverage/27454d9e-c94b-4530-b2a1-5ea68bf9275d"}},{"fullUrl":"https://madie.cms.gov/Organization/123456","resource":{"resourceType":"Organization","id":"3e899f33-84eb-4634-a770-a5a0bd7a80e7","meta":{"profile":["http://hl7.org/fhir/us/qicore/StructureDefinition/qicore-organization"]},"identifier":[{"use":"temp","system":"urn:oid:2.16.840.1.113883.4.4","value":"21-3259825"}],"active":true,"type":[{"coding":[{"system":"http://terminology.hl7.org/CodeSystem/organization-type","code":"pay","display":"Payer"}]}],"name":"Blue Cross Blue Shield of Texas","telecom":[{"system":"phone","value":"(+1) 972-766-6900"}],"address":[{"use":"billing","type":"postal","line":["P.O. Box 660044"],"city":"Dallas","state":"TX","postalCode":"75266-0044","country":"USA"}]},"request":{"method":"PUT","url":"Organization/3e899f33-84eb-4634-a770-a5a0bd7a80e7"}},{"fullUrl":"https://madie.cms.gov/Practitioner/practitioner-123456","resource":{"resourceType":"Practitioner","id":"5ed98ae2-a0d8-4c63-805f-93b276a04265","identifier":[{"system":"http://hl7.org/fhir/sid/us-npi","value":"123456"}],"name":[{"family":"Evil","prefix":["Dr"]}]},"request":{"method":"PUT","url":"Practitioner/5ed98ae2-a0d8-4c63-805f-93b276a04265"}},{"fullUrl":"https://madie.cms.gov/MeasureReport/58d2b892-d0c7-43bb-bd28-4f8203a77bb9","resource":{"resourceType":"MeasureReport","id":"58d2b892-d0c7-43bb-bd28-4f8203a77bb9","meta":{"profile":["http://hl7.org/fhir/us/cqfmeasures/StructureDefinition/test-case-cqfm"]},"contained":[{"resourceType":"Parameters","id":"c1b9174d-8017-4eaa-86af-0e19154ec964-parameters","parameter":[{"name":"subject","valueString":"2a0cc990-ccf5-466f-b8e2-df24a6f2cb98"}]}],"extension":[{"url":"http://hl7.org/fhir/us/cqfmeasures/StructureDefinition/cqfm-inputParameters","valueReference":{"reference":"#c1b9174d-8017-4eaa-86af-0e19154ec964-parameters"}},{"url":"http://hl7.org/fhir/us/cqfmeasures/StructureDefinition/cqfm-testCaseDescription","valueMarkdown":"Last assessment Performed, Estimated Delivery Date, Relevant time equal to  Delivery Result Date/Time plus 1 minute"}],"modifierExtension":[{"url":"http://hl7.org/fhir/us/cqfmeasures/StructureDefinition/cqfm-isTestCase","valueBoolean":true}],"status":"complete","type":"individual","measure":"https://madie.cms.gov/Measure/SevereObstetricComplicationsFHIR","period":{"start":"2025-01-01","end":"2025-12-31"},"group":[{"population":[{"code":{"coding":[{"system":"http://terminology.hl7.org/CodeSystem/measure-population","code":"initial-population","display":"Initial Population"}]},"count":1},{"code":{"coding":[{"system":"http://terminology.hl7.org/CodeSystem/measure-population","code":"denominator","display":"Denominator"}]},"count":0},{"code":{"coding":[{"system":"http://terminology.hl7.org/CodeSystem/measure-population","code":"denominator-exclusion","display":"Denominator Exclusion"}]},"count":0},{"code":{"coding":[{"system":"http://terminology.hl7.org/CodeSystem/measure-population","code":"numerator","display":"Numerator"}]},"count":0},{"code":{"coding":[{"system":"http://terminology.hl7.org/CodeSystem/measure-population","code":"numerator-exclusion","display":"Numerator Exclusion"}]},"count":0}]}]},"request":{"method":"PUT","url":"MeasureReport/58d2b892-d0c7-43bb-bd28-4f8203a77bb9"}}]}