{
  "resourceType": "Bundle",
  "id": "633c9d040968f8012250fcb0",
  "type": "transaction",
  "entry": [ {
    "fullUrl": "https://madie.cms.gov/Patient/7e10afa2-cb0d-4928-980e-ac3985b45f13",
    "resource": {
      "resourceType": "Patient",
      "id": "7e10afa2-cb0d-4928-980e-ac3985b45f13",
      "meta": {
        "profile": [ "http://hl7.org/fhir/us/qicore/StructureDefinition/qicore-patient" ]
      },
      "text": {
        "status": "generated",
        "div": "<div xmlns=\"http://www.w3.org/1999/xhtml\"><div class=\"hapiHeaderText\">3IPPass_DENEXPass2 <b>NUMERFAIL </b></div><table class=\"hapiPropertyTable\"><tbody><tr><td>Identifier</td><td>52c14de634122f39abfbd9ffaa41bc27</td></tr><tr><td>Date of birth</td><td><span>23 May 1954</span></td></tr></tbody></table></div>"
      },
      "extension": [ {
        "url": "http://hl7.org/fhir/us/core/StructureDefinition/us-core-race",
        "extension": [ {
          "url": "ombCategory",
          "valueCoding": {
            "system": "urn:oid:2.16.840.1.113883.6.238",
            "code": "1002-5",
            "display": "American Indian or Alaska Native",
            "userSelected": true
          }
        }, {
          "url": "text",
          "valueString": "American Indian or Alaska Native"
        } ]
      }, {
        "url": "http://hl7.org/fhir/us/core/StructureDefinition/us-core-ethnicity",
        "extension": [ {
          "url": "ombCategory",
          "valueCoding": {
            "system": "urn:oid:2.16.840.1.113883.6.238",
            "code": "2135-2",
            "display": "Hispanic or Latino",
            "userSelected": true
          }
        }, {
          "url": "text",
          "valueString": "Hispanic or Latino"
        } ]
      } ],
      "identifier": [ {
        "type": {
          "coding": [ {
            "system": "http://terminology.hl7.org/CodeSystem/v2-0203",
            "code": "MR"
          } ]
        },
        "system": "https://bonnie-fhir.healthit.gov/",
        "value": "633c9d040968f8012250fcb0"
      } ],
      "active": true,
      "name": [ {
        "use": "usual",
        "family": "NUMERFail",
        "given": [ "3IPPass_DENEXPass2" ]
      } ],
      "gender": "male",
      "birthDate": "1954-05-23"
    },
    "request": {
      "method": "PUT",
      "url": "Patient/7e10afa2-cb0d-4928-980e-ac3985b45f13"
    }
  }, {
    "fullUrl": "https://madie.cms.gov/Encounter/5c953f96b848462de0ae406d",
    "resource": {
      "resourceType": "Encounter",
      "id": "5c953f96b848462de0ae406d",
      "meta": {
        "profile": [ "http://hl7.org/fhir/us/qicore/StructureDefinition/qicore-encounter" ]
      },
      "status": "finished",
      "class": {
        "system": "http://terminology.hl7.org/CodeSystem/v3-ActCode",
        "code": "IMP",
        "display": "inpatient encounter"
      },
      "type": [ {
        "coding": [ {
          "system": "http://snomed.info/sct",
          "code": "32485007"
        } ]
      } ],
      "subject": {
        "reference": "Patient/7e10afa2-cb0d-4928-980e-ac3985b45f13"
      },
      "period": {
        "start": "2025-11-20T08:00:00.000Z",
        "end": "2025-11-24T08:15:00.000Z"
      },
      "length": {
        "value": 4.0,
        "unit": "days"
      },
      "diagnosis": [ {
        "condition": {
          "reference": "Condition/ischemic-stroke-1999"
        },
        "rank": 1
      } ]
    },
    "request": {
      "method": "PUT",
      "url": "Encounter/5c953f96b848462de0ae406d"
    }
  }, {
    "fullUrl": "https://madie.cms.gov/Encounter/5e309320ef08fe00001553e0",
    "resource": {
      "resourceType": "Encounter",
      "id": "5e309320ef08fe00001553e0",
      "meta": {
        "profile": [ "http://hl7.org/fhir/us/qicore/StructureDefinition/qicore-encounter" ]
      },
      "status": "finished",
      "class": {
        "system": "http://terminology.hl7.org/CodeSystem/v3-ActCode",
        "code": "IMP",
        "display": "inpatient encounter"
      },
      "type": [ {
        "coding": [ {
          "system": "http://snomed.info/sct",
          "code": "32485007"
        } ]
      } ],
      "subject": {
        "reference": "Patient/7e10afa2-cb0d-4928-980e-ac3985b45f13"
      },
      "period": {
        "start": "2025-10-28T08:00:00.000Z",
        "end": "2025-10-30T08:15:00.000Z"
      },
      "length": {
        "value": 3.0,
        "unit": "days"
      },
      "diagnosis": [ {
        "condition": {
          "reference": "Condition/hemorrhagic-stroke-1996"
        },
        "rank": 1
      }, {
        "condition": {
          "reference": "Condition/atrial-fibrillation-flutter-1997"
        },
        "use": {
          "coding": [ {
            "system": "http://snomed.info/sct",
            "code": "120041000119109",
            "display": "Atrial fibrillation with rapid ventricular response (disorder)",
            "userSelected": true
          } ]
        }
      }, {
        "condition": {
          "reference": "Condition/atrial-ablation-1998"
        },
        "use": {
          "coding": [ {
            "system": "http://www.icd10data.com/icd10pcs",
            "code": "02560ZZ",
            "display": "Destruction of Right Atrium, Open Approach",
            "userSelected": true
          } ]
        }
      } ]
    },
    "request": {
      "method": "PUT",
      "url": "Encounter/5e309320ef08fe00001553e0"
    }
  }, {
    "fullUrl": "https://madie.cms.gov/Encounter/5e30973bef08fe0000155769",
    "resource": {
      "resourceType": "Encounter",
      "id": "5e30973bef08fe0000155769",
      "meta": {
        "profile": [ "http://hl7.org/fhir/us/qicore/StructureDefinition/qicore-encounter" ]
      },
      "status": "finished",
      "class": {
        "system": "http://terminology.hl7.org/CodeSystem/v3-ActCode",
        "code": "IMP",
        "display": "inpatient encounter"
      },
      "type": [ {
        "coding": [ {
          "system": "http://snomed.info/sct",
          "code": "183452005"
        } ]
      } ],
      "subject": {
        "reference": "Patient/7e10afa2-cb0d-4928-980e-ac3985b45f13"
      },
      "period": {
        "start": "2025-09-03T08:00:00.000Z",
        "end": "2025-09-07T08:15:00.000Z"
      },
      "length": {
        "value": 4.0,
        "unit": "days"
      },
      "diagnosis": [ {
        "condition": {
          "reference": "Condition/ischemic-stroke-199a"
        },
        "use": {
          "coding": [ {
            "system": "http://snomed.info/sct",
            "version": "2021-09",
            "code": "230692004",
            "display": "Infarction - precerebral (disorder)",
            "userSelected": true
          } ]
        },
        "rank": 1
      }, {
        "condition": {
          "reference": "Condition/atrial-ablation-199b"
        },
        "use": {
          "coding": [ {
            "system": "http://www.icd10data.com/icd10pcs",
            "code": "02560ZZ",
            "display": "Destruction of Right Atrium, Open Approach",
            "userSelected": true
          } ]
        }
      }, {
        "condition": {
          "reference": "Condition/atrial-fibrillation-flutter-199c"
        },
        "use": {
          "coding": [ {
            "system": "http://snomed.info/sct",
            "version": "2021-09",
            "code": "425615007",
            "display": "Chronic atrial flutter (disorder)",
            "userSelected": true
          } ]
        }
      } ],
      "hospitalization": {
        "dischargeDisposition": {
          "coding": [ {
            "system": "http://snomed.info/sct",
            "code": "428371000124100",
            "display": "Discharge to healthcare facility for hospice care (procedure)"
          } ]
        }
      }
    },
    "request": {
      "method": "PUT",
      "url": "Encounter/5e30973bef08fe0000155769"
    }
  }, {
    "fullUrl": "https://madie.cms.gov/ServiceRequest/5e309a40ef08fe0000155922",
    "resource": {
      "resourceType": "ServiceRequest",
      "id": "5e309a40ef08fe0000155922",
      "meta": {
        "profile": [ "http://hl7.org/fhir/us/qicore/StructureDefinition/qicore-servicerequest" ]
      },
      "status": "active",
      "intent": "order",
      "code": {
        "coding": [ {
          "system": "http://snomed.info/sct",
          "code": "133918004"
        } ]
      },
      "subject": {
        "reference": "Patient/7e10afa2-cb0d-4928-980e-ac3985b45f13"
      },
      "authoredOn": "2025-11-20T08:00:00.000Z"
    },
    "request": {
      "method": "PUT",
      "url": "ServiceRequest/5e309a40ef08fe0000155922"
    }
  }, {
    "fullUrl": "https://madie.cms.gov/MedicationRequest/5c953f96b848462de0ae406f",
    "resource": {
      "resourceType": "MedicationRequest",
      "id": "5c953f96b848462de0ae406f",
      "meta": {
        "profile": [ "http://hl7.org/fhir/us/qicore/StructureDefinition/qicore-medicationrequest" ]
      },
      "status": "active",
      "intent": "order",
      "medicationCodeableConcept": {
        "coding": [ {
          "system": "http://www.nlm.nih.gov/research/umls/rxnorm",
          "code": "308351"
        } ]
      },
      "subject": {
        "reference": "Patient/7e10afa2-cb0d-4928-980e-ac3985b45f13"
      },
      "authoredOn": "2025-11-24T08:00:00.000+00:00",
      "requester": {
        "reference": "Practitioner/example"
      }
    },
    "request": {
      "method": "PUT",
      "url": "MedicationRequest/5c953f96b848462de0ae406f"
    }
  }, {
    "fullUrl": "https://madie.cms.gov/MedicationRequest/5e30936eef08fe0000155444",
    "resource": {
      "resourceType": "MedicationRequest",
      "id": "5e30936eef08fe0000155444",
      "meta": {
        "profile": [ "http://hl7.org/fhir/us/qicore/StructureDefinition/qicore-medicationrequest" ]
      },
      "status": "active",
      "intent": "order",
      "medicationCodeableConcept": {
        "coding": [ {
          "system": "http://www.nlm.nih.gov/research/umls/rxnorm",
          "code": "1037045"
        } ]
      },
      "subject": {
        "reference": "Patient/7e10afa2-cb0d-4928-980e-ac3985b45f13"
      },
      "authoredOn": "2025-09-07T08:00:00.000+00:00",
      "requester": {
        "reference": "Practitioner/example"
      }
    },
    "request": {
      "method": "PUT",
      "url": "MedicationRequest/5e30936eef08fe0000155444"
    }
  }, {
    "fullUrl": "https://madie.cms.gov/MedicationRequest/5e309c59ef08fe00001559de",
    "resource": {
      "resourceType": "MedicationRequest",
      "id": "5e309c59ef08fe00001559de",
      "meta": {
        "profile": [ "http://hl7.org/fhir/us/qicore/StructureDefinition/qicore-mednotrequested" ]
      },
      "status": "completed",
      "intent": "order",
      "category": [ {
        "coding": [ {
          "system": "http://terminology.hl7.org/CodeSystem/medicationrequest-category",
          "code": "community"
        } ]
      } ],
      "doNotPerform": true,
      "medicationCodeableConcept": {
        "coding": [ {
          "system": "http://www.nlm.nih.gov/research/umls/rxnorm",
          "code": "1037045"
        } ]
      },
      "subject": {
        "reference": "Patient/7e10afa2-cb0d-4928-980e-ac3985b45f13"
      },
      "authoredOn": "2025-10-30T08:00:00.000+00:00",
      "requester": {
        "reference": "Practitioner/example"
      },
      "reasonCode": [ {
        "coding": [ {
          "system": "http://snomed.info/sct",
          "code": "105480006",
          "display": "Refusal of treatment by patient (situation)"
        } ]
      } ]
    },
    "request": {
      "method": "PUT",
      "url": "MedicationRequest/5e309c59ef08fe00001559de"
    }
  }, {
    "fullUrl": "https://madie.cms.gov/Coverage/5f2c53d11c76ba5c996057b0",
    "resource": {
      "resourceType": "Coverage",
      "id": "5f2c53d11c76ba5c996057b0",
      "status": "active",
      "beneficiary": {
        "reference": "Patient/7e10afa2-cb0d-4928-980e-ac3985b45f13"
      },
      "period": {
        "start": "1954-05-23T08:00:00.000Z"
      },
      "payor": [ {
        "reference": "Organization/Org-123456"
      } ]
    },
    "request": {
      "method": "PUT",
      "url": "Coverage/5f2c53d11c76ba5c996057b0"
    }
  }, {
    "fullUrl": "https://madie.cms.gov/Procedure/5c953f96b848462de0ae4070",
    "resource": {
      "resourceType": "Procedure",
      "id": "5c953f96b848462de0ae4070",
      "meta": {
        "profile": [ "http://hl7.org/fhir/us/qicore/StructureDefinition/qicore-procedure" ]
      },
      "extension": [ {
        "url": "http://hl7.org/fhir/us/qicore/StructureDefinition/qicore-recorded",
        "valueDateTime": "2025-11-19T09:35:00-04:00"
      } ],
      "status": "completed",
      "code": {
        "coding": [ {
          "system": "http://www.cms.gov/Medicare/Coding/ICD10",
          "code": "02560ZZ"
        }, {
          "system": "http://snomed.info/sct",
          "code": "175095005"
        } ]
      },
      "subject": {
        "reference": "Patient/7e10afa2-cb0d-4928-980e-ac3985b45f13"
      },
      "performedPeriod": {
        "start": "2025-11-20T06:00:00.000Z",
        "end": "2025-11-20T07:15:00.000Z"
      }
    },
    "request": {
      "method": "PUT",
      "url": "Procedure/5c953f96b848462de0ae4070"
    }
  }, {
    "fullUrl": "https://madie.cms.gov/Procedure/5e309cb1ef08fe0000155a10",
    "resource": {
      "resourceType": "Procedure",
      "id": "5e309cb1ef08fe0000155a10",
      "meta": {
        "profile": [ "http://hl7.org/fhir/us/qicore/StructureDefinition/qicore-procedure" ]
      },
      "extension": [ {
        "url": "http://hl7.org/fhir/us/qicore/StructureDefinition/qicore-recorded",
        "valueDateTime": "2025-10-28T08:00:00.000+00:00"
      } ],
      "status": "completed",
      "code": {
        "coding": [ {
          "system": "http://www.cms.gov/Medicare/Coding/ICD10",
          "code": "02560ZZ"
        } ]
      },
      "subject": {
        "reference": "Patient/7e10afa2-cb0d-4928-980e-ac3985b45f13"
      },
      "performedPeriod": {
        "start": "2025-10-28T08:00:00.000Z",
        "end": "2025-10-30T08:15:00.000Z"
      }
    },
    "request": {
      "method": "PUT",
      "url": "Procedure/5e309cb1ef08fe0000155a10"
    }
  }, {
    "fullUrl": "https://madie.cms.gov/Condition/hemorrhagic-stroke-1996",
    "resource": {
      "resourceType": "Condition",
      "id": "hemorrhagic-stroke-1996",
      "meta": {
        "profile": [ "http://hl7.org/fhir/us/qicore/StructureDefinition/qicore-condition" ]
      },
      "clinicalStatus": {
        "coding": [ {
          "system": "http://terminology.hl7.org/CodeSystem/condition-clinical",
          "code": "active"
        } ]
      },
      "verificationStatus": {
        "coding": [ {
          "system": "http://terminology.hl7.org/CodeSystem/condition-ver-status",
          "code": "confirmed"
        } ]
      },
      "category": [ {
        "coding": [ {
          "system": "http://terminology.hl7.org/CodeSystem/condition-category",
          "code": "encounter-diagnosis",
          "display": "Encounter Diagnosis"
        } ]
      } ],
      "code": {
        "coding": [ {
          "system": "http://snomed.info/sct",
          "version": "2021-09",
          "code": "195155004",
          "display": "Subarachnoid hemorrhage from carotid siphon and bifurcation (disorder)",
          "userSelected": true
        } ]
      },
      "subject": {
        "reference": "Patient/7e10afa2-cb0d-4928-980e-ac3985b45f13"
      },
      "recordedDate": "2025-10-13T08:00:00.000+00:00"
    },
    "request": {
      "method": "PUT",
      "url": "Condition/hemorrhagic-stroke-1996"
    }
  }, {
    "fullUrl": "https://madie.cms.gov/Condition/atrial-fibrillation-flutter-1997",
    "resource": {
      "resourceType": "Condition",
      "id": "atrial-fibrillation-flutter-1997",
      "meta": {
        "profile": [ "http://hl7.org/fhir/us/qicore/StructureDefinition/qicore-condition" ]
      },
      "clinicalStatus": {
        "coding": [ {
          "system": "http://terminology.hl7.org/CodeSystem/condition-clinical",
          "code": "active"
        } ]
      },
      "verificationStatus": {
        "coding": [ {
          "system": "http://terminology.hl7.org/CodeSystem/condition-ver-status",
          "code": "confirmed"
        } ]
      },
      "category": [ {
        "coding": [ {
          "system": "http://terminology.hl7.org/CodeSystem/condition-category",
          "code": "encounter-diagnosis",
          "display": "Encounter Diagnosis"
        } ]
      } ],
      "code": {
        "coding": [ {
          "system": "http://snomed.info/sct",
          "version": "2021-09",
          "code": "120041000119109",
          "display": "Atrial fibrillation with rapid ventricular response (disorder)",
          "userSelected": true
        } ]
      },
      "subject": {
        "reference": "Patient/7e10afa2-cb0d-4928-980e-ac3985b45f13"
      },
      "recordedDate": "2025-10-13T08:00:00.000+00:00"
    },
    "request": {
      "method": "PUT",
      "url": "Condition/atrial-fibrillation-flutter-1997"
    }
  }, {
    "fullUrl": "https://madie.cms.gov/Condition/atrial-ablation-1998",
    "resource": {
      "resourceType": "Condition",
      "id": "atrial-ablation-1998",
      "meta": {
        "profile": [ "http://hl7.org/fhir/us/qicore/StructureDefinition/qicore-condition" ]
      },
      "clinicalStatus": {
        "coding": [ {
          "system": "http://terminology.hl7.org/CodeSystem/condition-clinical",
          "code": "active"
        } ]
      },
      "verificationStatus": {
        "coding": [ {
          "system": "http://terminology.hl7.org/CodeSystem/condition-ver-status",
          "code": "confirmed"
        } ]
      },
      "category": [ {
        "coding": [ {
          "system": "http://terminology.hl7.org/CodeSystem/condition-category",
          "code": "encounter-diagnosis",
          "display": "Encounter Diagnosis"
        } ]
      } ],
      "code": {
        "coding": [ {
          "system": "http://www.icd10data.com/icd10pcs",
          "version": "2022",
          "code": "02560ZZ",
          "display": "Destruction of Right Atrium, Open Approach",
          "userSelected": true
        } ]
      },
      "subject": {
        "reference": "Patient/7e10afa2-cb0d-4928-980e-ac3985b45f13"
      },
      "recordedDate": "2025-10-13T08:00:00.000+00:00"
    },
    "request": {
      "method": "PUT",
      "url": "Condition/atrial-ablation-1998"
    }
  }, {
    "fullUrl": "https://madie.cms.gov/Condition/ischemic-stroke-1999",
    "resource": {
      "resourceType": "Condition",
      "id": "ischemic-stroke-1999",
      "meta": {
        "profile": [ "http://hl7.org/fhir/us/qicore/StructureDefinition/qicore-condition" ]
      },
      "clinicalStatus": {
        "coding": [ {
          "system": "http://terminology.hl7.org/CodeSystem/condition-clinical",
          "code": "active"
        } ]
      },
      "verificationStatus": {
        "coding": [ {
          "system": "http://terminology.hl7.org/CodeSystem/condition-ver-status",
          "code": "confirmed"
        } ]
      },
      "category": [ {
        "coding": [ {
          "system": "http://terminology.hl7.org/CodeSystem/condition-category",
          "code": "encounter-diagnosis",
          "display": "Encounter Diagnosis"
        } ]
      } ],
      "code": {
        "coding": [ {
          "system": "http://snomed.info/sct",
          "version": "2021-09",
          "code": "111297002",
          "display": "Nonparalytic stroke (disorder)",
          "userSelected": true
        } ]
      },
      "subject": {
        "reference": "Patient/7e10afa2-cb0d-4928-980e-ac3985b45f13"
      },
      "recordedDate": "2025-11-20T08:00:00.000Z"
    },
    "request": {
      "method": "PUT",
      "url": "Condition/ischemic-stroke-1999"
    }
  }, {
    "fullUrl": "https://madie.cms.gov/Condition/ischemic-stroke-199a",
    "resource": {
      "resourceType": "Condition",
      "id": "ischemic-stroke-199a",
      "meta": {
        "profile": [ "http://hl7.org/fhir/us/qicore/StructureDefinition/qicore-condition" ]
      },
      "clinicalStatus": {
        "coding": [ {
          "system": "http://terminology.hl7.org/CodeSystem/condition-clinical",
          "code": "active"
        } ]
      },
      "verificationStatus": {
        "coding": [ {
          "system": "http://terminology.hl7.org/CodeSystem/condition-ver-status",
          "code": "confirmed"
        } ]
      },
      "category": [ {
        "coding": [ {
          "system": "http://terminology.hl7.org/CodeSystem/condition-category",
          "code": "encounter-diagnosis",
          "display": "Encounter Diagnosis"
        } ]
      } ],
      "code": {
        "coding": [ {
          "system": "http://snomed.info/sct",
          "version": "2021-09",
          "code": "111297002",
          "display": "Nonparalytic stroke (disorder)",
          "userSelected": true
        } ]
      },
      "subject": {
        "reference": "Patient/7e10afa2-cb0d-4928-980e-ac3985b45f13"
      },
      "recordedDate": "2025-10-13T08:00:00.000+00:00"
    },
    "request": {
      "method": "PUT",
      "url": "Condition/ischemic-stroke-199a"
    }
  }, {
    "fullUrl": "https://madie.cms.gov/Condition/atrial-ablation-199b",
    "resource": {
      "resourceType": "Condition",
      "id": "atrial-ablation-199b",
      "meta": {
        "profile": [ "http://hl7.org/fhir/us/qicore/StructureDefinition/qicore-condition" ]
      },
      "clinicalStatus": {
        "coding": [ {
          "system": "http://terminology.hl7.org/CodeSystem/condition-clinical",
          "code": "active"
        } ]
      },
      "verificationStatus": {
        "coding": [ {
          "system": "http://terminology.hl7.org/CodeSystem/condition-ver-status",
          "code": "confirmed"
        } ]
      },
      "category": [ {
        "coding": [ {
          "system": "http://terminology.hl7.org/CodeSystem/condition-category",
          "code": "encounter-diagnosis",
          "display": "Encounter Diagnosis"
        } ]
      } ],
      "code": {
        "coding": [ {
          "system": "http://www.icd10data.com/icd10pcs",
          "version": "2022",
          "code": "02560ZZ",
          "display": "Destruction of Right Atrium, Open Approach",
          "userSelected": true
        } ]
      },
      "subject": {
        "reference": "Patient/7e10afa2-cb0d-4928-980e-ac3985b45f13"
      },
      "recordedDate": "2025-10-13T08:00:00.000+00:00"
    },
    "request": {
      "method": "PUT",
      "url": "Condition/atrial-ablation-199b"
    }
  }, {
    "fullUrl": "https://madie.cms.gov/Condition/atrial-fibrillation-flutter-199c",
    "resource": {
      "resourceType": "Condition",
      "id": "atrial-fibrillation-flutter-199c",
      "meta": {
        "profile": [ "http://hl7.org/fhir/us/qicore/StructureDefinition/qicore-condition" ]
      },
      "clinicalStatus": {
        "coding": [ {
          "system": "http://terminology.hl7.org/CodeSystem/condition-clinical",
          "code": "active"
        } ]
      },
      "verificationStatus": {
        "coding": [ {
          "system": "http://terminology.hl7.org/CodeSystem/condition-ver-status",
          "code": "confirmed"
        } ]
      },
      "category": [ {
        "coding": [ {
          "system": "http://terminology.hl7.org/CodeSystem/condition-category",
          "code": "encounter-diagnosis",
          "display": "Encounter Diagnosis"
        } ]
      } ],
      "code": {
        "coding": [ {
          "system": "http://snomed.info/sct",
          "version": "2021-09",
          "code": "120041000119109",
          "display": "Atrial fibrillation with rapid ventricular response (disorder)",
          "userSelected": true
        } ]
      },
      "subject": {
        "reference": "Patient/7e10afa2-cb0d-4928-980e-ac3985b45f13"
      },
      "recordedDate": "2025-10-13T08:00:00.000+00:00"
    },
    "request": {
      "method": "PUT",
      "url": "Condition/atrial-fibrillation-flutter-199c"
    }
  }, {
    "fullUrl": "https://madie.cms.gov/Organization/123456",
    "resource": {
      "resourceType": "Organization",
      "id": "Org-123456",
      "meta": {
        "profile": [ "http://hl7.org/fhir/us/qicore/StructureDefinition/qicore-organization" ]
      },
      "identifier": [ {
        "use": "temp",
        "system": "urn:oid:2.16.840.1.113883.4.4",
        "value": "21-3259825"
      } ],
      "active": true,
      "type": [ {
        "coding": [ {
          "system": "http://terminology.hl7.org/CodeSystem/organization-type",
          "code": "pay",
          "display": "Payer"
        } ]
      } ],
      "name": "Blue Cross Blue Shield of Texas",
      "telecom": [ {
        "system": "phone",
        "value": "(+1) 972-766-6900"
      } ],
      "address": [ {
        "use": "billing",
        "type": "postal",
        "line": [ "P.O. Box 660044" ],
        "city": "Dallas",
        "state": "TX",
        "postalCode": "75266-0044",
        "country": "USA"
      } ]
    },
    "request": {
      "method": "PUT",
      "url": "Organization/Org-123456"
    }
  }, {
    "fullUrl": "https://madie.cms.gov/Practitioner/practitioner-123456",
    "resource": {
      "resourceType": "Practitioner",
      "id": "practitioner-123456",
      "identifier": [ {
        "system": "http://hl7.org/fhir/sid/us-npi",
        "value": "123456"
      } ],
      "name": [ {
        "family": "Evil",
        "prefix": [ "Dr" ]
      } ]
    },
    "request": {
      "method": "PUT",
      "url": "Practitioner/practitioner-123456"
    }
  }, {
    "fullUrl": "https://madie.cms.gov/MeasureReport/79fdbf07-b0d5-4655-86cf-9b3ed456ef26",
    "resource": {
      "resourceType": "MeasureReport",
      "id": "79fdbf07-b0d5-4655-86cf-9b3ed456ef26",
      "meta": {
        "profile": [ "http://hl7.org/fhir/us/cqfmeasures/StructureDefinition/test-case-cqfm" ]
      },
      "contained": [ {
        "resourceType": "Parameters",
        "id": "4308b9e1-8cac-49e7-817e-673a585d3e75-parameters",
        "parameter": [ {
          "name": "subject",
          "valueString": "7e10afa2-cb0d-4928-980e-ac3985b45f13"
        } ]
      } ],
      "extension": [ {
        "url": "http://hl7.org/fhir/us/cqfmeasures/StructureDefinition/cqfm-inputParameters",
        "valueReference": {
          "reference": "#4308b9e1-8cac-49e7-817e-673a585d3e75-parameters"
        }
      }, {
        "url": "http://hl7.org/fhir/us/cqfmeasures/StructureDefinition/cqfm-testCaseDescription",
        "valueMarkdown": "Pt. discharged on anticoagulant, starts during encounter 1. Encounter 2 has admitting diagnosis with rank 2. Encounter 3 satisfies IPP and Denom. \n"
      } ],
      "modifierExtension": [ {
        "url": "http://hl7.org/fhir/us/cqfmeasures/StructureDefinition/cqfm-isTestCase",
        "valueBoolean": true
      } ],
      "status": "complete",
      "type": "individual",
      "measure": "https://madie.cms.gov/Measure/AnticoagulationTherapyforAtrialFibrillationFlutterFHIR",
      "period": {
        "start": "2025-01-01",
        "end": "2025-12-31"
      },
      "group": [ {
        "population": [ {
          "code": {
            "coding": [ {
              "system": "http://terminology.hl7.org/CodeSystem/measure-population",
              "code": "initial-population",
              "display": "Initial Population"
            } ]
          },
          "count": 3
        }, {
          "code": {
            "coding": [ {
              "system": "http://terminology.hl7.org/CodeSystem/measure-population",
              "code": "denominator",
              "display": "Denominator"
            } ]
          },
          "count": 2
        }, {
          "code": {
            "coding": [ {
              "system": "http://terminology.hl7.org/CodeSystem/measure-population",
              "code": "denominator-exclusion",
              "display": "Denominator Exclusion"
            } ]
          },
          "count": 2
        }, {
          "code": {
            "coding": [ {
              "system": "http://terminology.hl7.org/CodeSystem/measure-population",
              "code": "numerator",
              "display": "Numerator"
            } ]
          },
          "count": 0
        }, {
          "code": {
            "coding": [ {
              "system": "http://terminology.hl7.org/CodeSystem/measure-population",
              "code": "denominator-exception",
              "display": "Denominator Exception"
            } ]
          },
          "count": 0
        } ]
      } ],
      "evaluatedResource": [ {
        "reference": "Patient/7e10afa2-cb0d-4928-980e-ac3985b45f13"
      }, {
        "reference": "Encounter/5c953f96b848462de0ae406d"
      }, {
        "reference": "Encounter/5e309320ef08fe00001553e0"
      }, {
        "reference": "Encounter/5e30973bef08fe0000155769"
      }, {
        "reference": "ServiceRequest/5e309a40ef08fe0000155922"
      }, {
        "reference": "MedicationRequest/5c953f96b848462de0ae406f"
      }, {
        "reference": "MedicationRequest/5e30936eef08fe0000155444"
      }, {
        "reference": "MedicationRequest/5e309c59ef08fe00001559de"
      }, {
        "reference": "Coverage/5f2c53d11c76ba5c996057b0"
      }, {
        "reference": "Procedure/5c953f96b848462de0ae4070"
      }, {
        "reference": "Procedure/5e309cb1ef08fe0000155a10"
      }, {
        "reference": "Condition/hemorrhagic-stroke-1996"
      }, {
        "reference": "Condition/atrial-fibrillation-flutter-1997"
      }, {
        "reference": "Condition/atrial-ablation-1998"
      }, {
        "reference": "Condition/ischemic-stroke-1999"
      }, {
        "reference": "Condition/ischemic-stroke-199a"
      }, {
        "reference": "Condition/atrial-ablation-199b"
      }, {
        "reference": "Condition/atrial-fibrillation-flutter-199c"
      }, {
        "reference": "Organization/Org-123456"
      }, {
        "reference": "Practitioner/practitioner-123456"
      } ]
    },
    "request": {
      "method": "PUT",
      "url": "MeasureReport/79fdbf07-b0d5-4655-86cf-9b3ed456ef26"
    }
  } ]
}