{"resourceType":"Bundle","id":"tests-132a7880-8f4a-4b0c-a7d6-3f5a8d6df0b3-bundle","type":"transaction","entry":[{"fullUrl":"https://madie.cms.gov/Patient/132a7880-8f4a-4b0c-a7d6-3f5a8d6df0b3","resource":{"resourceType":"Patient","id":"132a7880-8f4a-4b0c-a7d6-3f5a8d6df0b3","meta":{"profile":["http://hl7.org/fhir/us/qicore/StructureDefinition/qicore-patient"]},"extension":[{"url":"http://hl7.org/fhir/us/core/StructureDefinition/us-core-race","extension":[{"url":"ombCategory","valueCoding":{"system":"urn:oid:2.16.840.1.113883.6.238","code":"2076-8","display":"Native Hawaiian or Other Pacific Islander"}},{"url":"text","valueString":"Native Hawaiian or Other Pacific Islander"}]},{"url":"http://hl7.org/fhir/us/core/StructureDefinition/us-core-ethnicity","extension":[{"url":"ombCategory","valueCoding":{"system":"urn:oid:2.16.840.1.113883.6.238","code":"2186-5","display":"Not Hispanic or Latino"}},{"url":"text","valueString":"Not Hispanic or Latino"}]}],"identifier":[{"type":{"coding":[{"system":"http://terminology.hl7.org/CodeSystem/v2-0203","code":"MR"}]},"system":"https://bonnie-fhir.healthit.gov/","value":"7843135463165262"}],"name":[{"family":"DENEXPass","given":["MixedHistology2MonthsBeforeStaging"]}],"gender":"female","birthDate":"1946-11-03"},"request":{"method":"PUT","url":"Patient/132a7880-8f4a-4b0c-a7d6-3f5a8d6df0b3"}},{"fullUrl":"https://madie.cms.gov/Encounter/6431313497641","resource":{"resourceType":"Encounter","id":"7a774a30-ff3c-4a81-a3a3-4eec74eb8642","meta":{"profile":["http://hl7.org/fhir/us/qicore/StructureDefinition/qicore-encounter"]},"status":"finished","class":{"system":"http://terminology.hl7.org/CodeSystem/v3-ActCode","code":"AMB","display":"ambulatory"},"type":[{"coding":[{"system":"http://snomed.info/sct","version":"http://snomed.info/sct/731000124108/version/20240301","code":"185463005","display":"Visit out of hours (procedure)"}]}],"subject":{"reference":"Patient/132a7880-8f4a-4b0c-a7d6-3f5a8d6df0b3"},"period":{"start":"2025-04-06T08:00:00.000+00:00","end":"2025-04-06T09:15:00.000+00:00"}},"request":{"method":"PUT","url":"Encounter/7a774a30-ff3c-4a81-a3a3-4eec74eb8642"}},{"fullUrl":"https://madie.cms.gov/Condition/416135131310","resource":{"resourceType":"Condition","id":"7235bcd0-d13f-4267-b948-98444131b886","meta":{"profile":["http://hl7.org/fhir/us/qicore/StructureDefinition/qicore-condition"]},"clinicalStatus":{"coding":[{"system":"http://terminology.hl7.org/CodeSystem/condition-clinical","code":"active","display":"Active"}]},"verificationStatus":{"coding":[{"system":"http://terminology.hl7.org/CodeSystem/condition-ver-status","code":"confirmed","display":"Confirmed"}]},"category":[{"coding":[{"system":"http://terminology.hl7.org/CodeSystem/condition-category","code":"problem-list-item","display":"Problem List Item"}]}],"code":{"coding":[{"system":"http://hl7.org/fhir/sid/icd-10-cm","version":"2024","code":"C67.1","display":"Malignant neoplasm of dome of bladder"}]},"subject":{"reference":"Patient/132a7880-8f4a-4b0c-a7d6-3f5a8d6df0b3"},"onsetPeriod":{"start":"2025-04-06T08:00:00.000+00:00"}},"request":{"method":"PUT","url":"Condition/7235bcd0-d13f-4267-b948-98444131b886"}},{"fullUrl":"https://madie.cms.gov/Condition/2153211313","resource":{"resourceType":"Condition","id":"8405d0ab-d44b-4f9a-b8ec-1e8e274a88c8","meta":{"profile":["http://hl7.org/fhir/us/qicore/StructureDefinition/qicore-condition"]},"clinicalStatus":{"coding":[{"system":"http://terminology.hl7.org/CodeSystem/condition-clinical","code":"active","display":"Active"}]},"verificationStatus":{"coding":[{"system":"http://terminology.hl7.org/CodeSystem/condition-ver-status","code":"confirmed","display":"Confirmed"}]},"category":[{"coding":[{"system":"http://terminology.hl7.org/CodeSystem/condition-category","code":"problem-list-item","display":"Problem List Item"}]}],"code":{"coding":[{"system":"http://snomed.info/sct","version":"http://snomed.info/sct/731000124108/version/20240301","code":"278046008","display":"Mixed histology urothelial cell carcinoma for Urology Care"}]},"subject":{"reference":"Patient/132a7880-8f4a-4b0c-a7d6-3f5a8d6df0b3"},"onsetPeriod":{"start":"2025-02-06T08:00:00.000+00:00"}},"request":{"method":"PUT","url":"Condition/8405d0ab-d44b-4f9a-b8ec-1e8e274a88c8"}},{"fullUrl":"https://madie.cms.gov/Procedure/64131313541","resource":{"resourceType":"Procedure","id":"54724654-983a-4e75-aafd-2304ff3fb47e","meta":{"profile":["http://hl7.org/fhir/us/qicore/StructureDefinition/qicore-procedure"]},"extension":[{"url":"http://hl7.org/fhir/us/qicore/StructureDefinition/qicore-recorded","valueDateTime":"2025-04-06T08:00:00.000+00:00"}],"status":"completed","code":{"coding":[{"system":"http://snomed.info/sct","version":"http://snomed.info/sct/731000124108/version/20240301","code":"254292007","display":"Tumor staging"}]},"subject":{"reference":"Patient/132a7880-8f4a-4b0c-a7d6-3f5a8d6df0b3"},"performedDateTime":"2025-04-06T08:00:00.000+00:00"},"request":{"method":"PUT","url":"Procedure/54724654-983a-4e75-aafd-2304ff3fb47e"}},{"fullUrl":"https://madie.cms.gov/Observation/95452545","resource":{"resourceType":"Observation","id":"9c113325-4ffa-4121-8192-5e589efa9441","meta":{"profile":["http://hl7.org/fhir/us/qicore/StructureDefinition/qicore-observation"]},"partOf":[{"reference":"Procedure/64131313541"}],"status":"final","category":[{"coding":[{"system":"http://terminology.hl7.org/CodeSystem/observation-category","code":"procedure","display":"Procedure"}]}],"code":{"coding":[{"system":"http://loinc.org","version":"2.76","code":"21902-2","display":"Stage group.pathology Cancer"}]},"subject":{"reference":"Patient/132a7880-8f4a-4b0c-a7d6-3f5a8d6df0b3"},"effectiveDateTime":"2025-04-06T08:00:00.000+00:00","issued":"2025-04-06T08:10:00.000+00:00","valueCodeableConcept":{"coding":[{"system":"http://snomed.info/sct","version":"http://snomed.info/sct/731000124108/version/20240301","code":"1228889001","display":"American Joint Committee on Cancer cT1 (qualifier value)"}]}},"request":{"method":"PUT","url":"Observation/9c113325-4ffa-4121-8192-5e589efa9441"}},{"fullUrl":"https://madie.cms.gov/MeasureReport/311779c2-56db-4fff-affe-7e240a1e1977","resource":{"resourceType":"MeasureReport","id":"311779c2-56db-4fff-affe-7e240a1e1977","meta":{"profile":["http://hl7.org/fhir/us/cqfmeasures/StructureDefinition/test-case-cqfm"]},"contained":[{"resourceType":"Parameters","id":"d660b5e1-0065-4a47-913b-6ef1334a3adf-parameters","parameter":[{"name":"subject","valueString":"132a7880-8f4a-4b0c-a7d6-3f5a8d6df0b3"}]}],"extension":[{"url":"http://hl7.org/fhir/us/cqfmeasures/StructureDefinition/cqfm-inputParameters","valueReference":{"reference":"#d660b5e1-0065-4a47-913b-6ef1334a3adf-parameters"}},{"url":"http://hl7.org/fhir/us/cqfmeasures/StructureDefinition/cqfm-testCaseDescription","valueMarkdown":"Patient with cT1 staging and OV in MP.  Pt has Mixed histology 2 mo before staging and should be excluded."}],"modifierExtension":[{"url":"http://hl7.org/fhir/us/cqfmeasures/StructureDefinition/cqfm-isTestCase","valueBoolean":true}],"status":"complete","type":"individual","measure":"https://madie.cms.gov/Measure/IntravesicalBacillusCalmetteGuerinForBladderCancerFHIR","period":{"start":"2025-01-01","end":"2025-12-31"},"group":[{"population":[{"code":{"coding":[{"system":"http://terminology.hl7.org/CodeSystem/measure-population","code":"initial-population","display":"Initial Population"}]},"count":1},{"code":{"coding":[{"system":"http://terminology.hl7.org/CodeSystem/measure-population","code":"denominator","display":"Denominator"}]},"count":1},{"code":{"coding":[{"system":"http://terminology.hl7.org/CodeSystem/measure-population","code":"denominator-exclusion","display":"Denominator Exclusion"}]},"count":1},{"code":{"coding":[{"system":"http://terminology.hl7.org/CodeSystem/measure-population","code":"numerator","display":"Numerator"}]},"count":0},{"code":{"coding":[{"system":"http://terminology.hl7.org/CodeSystem/measure-population","code":"denominator-exception","display":"Denominator Exception"}]},"count":0}]}]},"request":{"method":"PUT","url":"MeasureReport/311779c2-56db-4fff-affe-7e240a1e1977"}}]}