{"resourceType":"Bundle","id":"tests-6d1ee238-b549-4413-b194-5306e1f4f05f-bundle","type":"transaction","entry":[{"fullUrl":"https://madie.cms.gov/Patient/6d1ee238-b549-4413-b194-5306e1f4f05f","resource":{"resourceType":"Patient","id":"6d1ee238-b549-4413-b194-5306e1f4f05f","meta":{"profile":["http://hl7.org/fhir/us/qicore/StructureDefinition/qicore-patient"]},"text":{"status":"generated","div":"<div xmlns=\"http://www.w3.org/1999/xhtml\"><div class=\"hapiHeaderText\">NoResult <b>SODIUMFAIL </b></div><table class=\"hapiPropertyTable\"><tbody><tr><td>Identifier</td><td>eb360e3679224871964d5b3575a59ceb3c2f6260372fb1be3ea61ac84d2937cf</td></tr><tr><td>Date of birth</td><td><span>15 June 1956</span></td></tr></tbody></table></div>"},"extension":[{"url":"http://hl7.org/fhir/us/core/StructureDefinition/us-core-race","extension":[{"url":"ombCategory","valueCoding":{"system":"urn:oid:2.16.840.1.113883.6.238","code":"1002-5","display":"American Indian or Alaska Native","userSelected":true}},{"url":"text","valueString":"American Indian or Alaska Native"}]},{"url":"http://hl7.org/fhir/us/core/StructureDefinition/us-core-ethnicity","extension":[{"url":"ombCategory","valueCoding":{"system":"urn:oid:2.16.840.1.113883.6.238","code":"2186-5","display":"Not Hispanic or Latino","userSelected":true}},{"url":"text","valueString":"Not Hispanic or Latino"}]}],"identifier":[{"type":{"coding":[{"system":"http://terminology.hl7.org/CodeSystem/v2-0203","code":"MR"}]},"system":"https://bonnie-fhir.healthit.gov/","value":"63ec096bccb3770120fea0ad"}],"active":true,"name":[{"use":"usual","family":"PerformedOnAdmission","given":["OxygenSatPass"]}],"gender":"male","birthDate":"1941-07-01"},"request":{"method":"PUT","url":"Patient/6d1ee238-b549-4413-b194-5306e1f4f05f"}},{"fullUrl":"https://madie.cms.gov/Encounter/60af048f-7a6f-4412-8900-c837920d1d29","resource":{"resourceType":"Encounter","id":"60af048f-7a6f-4412-8900-c837920d1d29","meta":{"profile":["http://hl7.org/fhir/us/qicore/StructureDefinition/qicore-encounter"]},"status":"finished","class":{"system":"http://terminology.hl7.org/CodeSystem/v3-ActCode","code":"IMP","display":"inpatient encounter","userSelected":true},"type":[{"coding":[{"system":"http://snomed.info/sct","code":"183452005"}]}],"subject":{"reference":"Patient/6d1ee238-b549-4413-b194-5306e1f4f05f"},"period":{"start":"2026-07-01T12:01:00.000+00:00","end":"2026-07-04T08:15:00.000+00:00"}},"request":{"method":"PUT","url":"Encounter/60af048f-7a6f-4412-8900-c837920d1d29"}},{"fullUrl":"https://madie.cms.gov/Encounter/60af048f-7a6f-4412-8900-c837920d1d291","resource":{"resourceType":"Encounter","id":"0aaed2cb-cb69-48aa-ada8-dffed0078ffd","meta":{"profile":["http://hl7.org/fhir/us/qicore/StructureDefinition/qicore-encounter"]},"status":"finished","class":{"system":"http://terminology.hl7.org/CodeSystem/v3-ActCode","code":"IMP","display":"inpatient encounter","userSelected":true},"type":[{"coding":[{"system":"http://snomed.info/sct","code":"183452005","display":"Emergency hospital admission (procedure)"}]}],"subject":{"reference":"Patient/6d1ee238-b549-4413-b194-5306e1f4f05f"},"period":{"start":"2026-12-31T12:01:00.000+00:00","end":"2027-01-03T10:00:00.000+00:00"}},"request":{"method":"PUT","url":"Encounter/0aaed2cb-cb69-48aa-ada8-dffed0078ffd"}},{"fullUrl":"https://madie.cms.gov/Encounter/60af048f-7a6f-4412-8900-c837920d1d292","resource":{"resourceType":"Encounter","id":"a741e1a3-d91d-4ecb-b170-45ed9265a0d5","meta":{"profile":["http://hl7.org/fhir/us/qicore/StructureDefinition/qicore-encounter"]},"status":"finished","class":{"system":"http://terminology.hl7.org/CodeSystem/v3-ActCode","code":"IMP","display":"inpatient encounter","userSelected":true},"type":[{"coding":[{"system":"http://snomed.info/sct","code":"32485007","display":"Hospital admission (procedure)"}]}],"subject":{"reference":"Patient/6d1ee238-b549-4413-b194-5306e1f4f05f"},"period":{"start":"2027-01-04T08:00:00.000+00:00","end":"2027-01-08T08:15:00.000+00:00"}},"request":{"method":"PUT","url":"Encounter/a741e1a3-d91d-4ecb-b170-45ed9265a0d5"}},{"fullUrl":"https://madie.cms.gov/Observation/cb040c19-b759-4ca3-b5d1-076a722d8ab0","resource":{"resourceType":"Observation","id":"cb040c19-b759-4ca3-b5d1-076a722d8ab0","meta":{"profile":["http://hl7.org/fhir/us/qicore/StructureDefinition/qicore-observation"]},"status":"final","category":[{"coding":[{"system":"http://terminology.hl7.org/CodeSystem/observation-category","code":"vital-signs","display":"Vital Signs","userSelected":true}]}],"code":{"coding":[{"system":"http://loinc.org","code":"59408-5","display":"Oxygen saturation in Arterial blood by Pulse oximetry"}]},"subject":{"reference":"Patient/6d1ee238-b549-4413-b194-5306e1f4f05f"},"effectiveDateTime":"2026-07-01T12:01:00.000+00:00","valueQuantity":{"value":98,"unit":"%","system":"http://unitsofmeasure.org","code":"%"}},"request":{"method":"PUT","url":"Observation/cb040c19-b759-4ca3-b5d1-076a722d8ab0"}},{"fullUrl":"https://madie.cms.gov/Coverage/4a4a436a-34e1-43fb-9052-d09e2dc4e320","resource":{"resourceType":"Coverage","id":"4a4a436a-34e1-43fb-9052-d09e2dc4e320","meta":{"profile":["http://hl7.org/fhir/us/qicore/StructureDefinition/qicore-coverage"]},"status":"active","type":{"coding":[{"system":"https://nahdo.org/sopt","version":"1.0.1","code":"1","display":"Medicare payer","userSelected":true}]},"beneficiary":{"reference":"Patient/6d1ee238-b549-4413-b194-5306e1f4f05f"},"payor":[{"reference":"Organization/e75793c9-fdf6-463a-8c1d-4ee44320dc25"}]},"request":{"method":"PUT","url":"Coverage/4a4a436a-34e1-43fb-9052-d09e2dc4e320"}},{"fullUrl":"https://madie.cms.gov/Practitioner/4008f4c9-225c-4744-90b6-767197861878","resource":{"resourceType":"Practitioner","id":"4008f4c9-225c-4744-90b6-767197861878","meta":{"profile":["http://hl7.org/fhir/us/qicore/StructureDefinition/qicore-practitioner"]},"identifier":[{"system":"http://hl7.org/fhir/sid/us-npi","value":"123456"}],"name":[{"family":"Evil","prefix":["Dr"]}]},"request":{"method":"PUT","url":"Practitioner/4008f4c9-225c-4744-90b6-767197861878"}},{"fullUrl":"https://madie.cms.gov/MeasureReport/98a7fc03-8157-4e8e-a06c-96ab64ef3fa6","resource":{"resourceType":"MeasureReport","id":"98a7fc03-8157-4e8e-a06c-96ab64ef3fa6","meta":{"profile":["http://hl7.org/fhir/us/cqfmeasures/StructureDefinition/test-case-cqfm"]},"contained":[{"resourceType":"Parameters","id":"548d5e95-6cca-48e6-a7ff-40ff0d1f924c-parameters","parameter":[{"name":"subject","valueString":"6d1ee238-b549-4413-b194-5306e1f4f05f"}]}],"extension":[{"url":"http://hl7.org/fhir/us/cqfmeasures/StructureDefinition/cqfm-inputParameters","valueReference":{"reference":"#548d5e95-6cca-48e6-a7ff-40ff0d1f924c-parameters"}},{"url":"http://hl7.org/fhir/us/cqfmeasures/StructureDefinition/cqfm-testCaseDescription","valueMarkdown":"Enc first day of MP (7/1), age 65 today, has Medicare, O2 sats performed on admission and 24 hours after admission, only the first one is included   "}],"modifierExtension":[{"url":"http://hl7.org/fhir/us/cqfmeasures/StructureDefinition/cqfm-isTestCase","valueBoolean":true}],"status":"complete","type":"individual","measure":"https://madie.cms.gov/Measure/CMSFHIR844HybridHospitalWideMortality","period":{"start":"2026-07-01","end":"2027-06-30"},"group":[{"population":[{"code":{"coding":[{"system":"http://terminology.hl7.org/CodeSystem/measure-population","code":"initial-population","display":"Initial Population"}]},"count":3}]}]},"request":{"method":"PUT","url":"MeasureReport/98a7fc03-8157-4e8e-a06c-96ab64ef3fa6"}}]}