{"resourceType":"Bundle","id":"tests-bff2a70b-b2df-4c6b-9d98-be4edde798e0-bundle","type":"transaction","entry":[{"fullUrl":"https://madie.cms.gov/Patient/bff2a70b-b2df-4c6b-9d98-be4edde798e0","resource":{"resourceType":"Patient","id":"bff2a70b-b2df-4c6b-9d98-be4edde798e0","meta":{"profile":["http://hl7.org/fhir/us/qicore/StructureDefinition/qicore-patient"]},"extension":[{"url":"http://hl7.org/fhir/us/core/StructureDefinition/us-core-race","extension":[{"url":"ombCategory","valueCoding":{"system":"urn:oid:2.16.840.1.113883.6.238","code":"2028-9","display":"Asian"}},{"url":"text","valueString":"Asian"}]},{"url":"http://hl7.org/fhir/us/core/StructureDefinition/us-core-ethnicity","extension":[{"url":"ombCategory","valueCoding":{"system":"urn:oid:2.16.840.1.113883.6.238","code":"2135-2","display":"Hispanic or Latino"}},{"url":"text","valueString":"Hispanic or Latino"}]}],"identifier":[{"system":"http://hospital.smarthealthit.org","value":"999999995"}],"name":[{"family":"Bertha","given":["Betty"]}],"gender":"female","birthDate":"2007-04-30"},"request":{"method":"PUT","url":"Patient/bff2a70b-b2df-4c6b-9d98-be4edde798e0"}},{"fullUrl":"https://madie.cms.gov/Encounter/Encounter-9","resource":{"resourceType":"Encounter","id":"Encounter-9","meta":{"profile":["http://hl7.org/fhir/us/qicore/StructureDefinition/qicore-encounter"]},"status":"finished","class":{"system":"http://terminology.hl7.org/CodeSystem/v3-ActCode","code":"AMB","display":"ambulatory"},"type":[{"coding":[{"system":"http://snomed.info/sct","code":"3391000175108","display":"Office visit for pediatric care and assessment (procedure)"}]}],"subject":{"reference":"Patient/bff2a70b-b2df-4c6b-9d98-be4edde798e0"},"period":{"start":"2025-01-01T00:00:00.000Z","end":"2025-01-01T01:00:00.000Z"}},"request":{"method":"PUT","url":"Encounter/Encounter-9"}},{"fullUrl":"https://madie.cms.gov/MedicationDispense/MedicationDispense-9","resource":{"resourceType":"MedicationDispense","id":"MedicationDispense-9","meta":{"profile":["http://hl7.org/fhir/us/qicore/StructureDefinition/qicore-medicationdispense"]},"status":"completed","medicationCodeableConcept":{"coding":[{"system":"http://www.nlm.nih.gov/research/umls/rxnorm","code":"1099316","display":"desipramine hydrochloride 75 MG Oral Tablet"}]},"subject":{"reference":"Patient/bff2a70b-b2df-4c6b-9d98-be4edde798e0"},"daysSupply":{"value":180,"system":"http://unitsofmeasure.org","code":"days"},"whenHandedOver":"2025-01-01T01:00:00.000Z"},"request":{"method":"PUT","url":"MedicationDispense/MedicationDispense-9"}},{"fullUrl":"https://madie.cms.gov/Condition/Condition-9","resource":{"resourceType":"Condition","id":"Condition-9","meta":{"profile":["http://hl7.org/fhir/us/qicore/StructureDefinition/qicore-condition"]},"clinicalStatus":{"coding":[{"system":"http://terminology.hl7.org/CodeSystem/condition-clinical","code":"active"}]},"category":[{"coding":[{"system":"http://terminology.hl7.org/CodeSystem/condition-category","code":"problem-list-item","display":"Problem List Item"}]}],"code":{"coding":[{"system":"http://snomed.info/sct","code":"15193003","display":"Severe recurrent major depression with psychotic features, mood-incongruent (disorder)"}]},"subject":{"reference":"Patient/bff2a70b-b2df-4c6b-9d98-be4edde798e0"},"onsetDateTime":"2025-01-01T01:00:00.000Z"},"request":{"method":"PUT","url":"Condition/Condition-9"}},{"fullUrl":"https://madie.cms.gov/MeasureReport/cc3c682e-a150-4ea9-b1a6-328024386e85","resource":{"resourceType":"MeasureReport","id":"cc3c682e-a150-4ea9-b1a6-328024386e85","meta":{"profile":["http://hl7.org/fhir/us/cqfmeasures/StructureDefinition/test-case-cqfm"]},"contained":[{"resourceType":"Parameters","id":"b88d1169-cc9c-4406-90d8-b738b6d5b760-parameters","parameter":[{"name":"subject","valueString":"bff2a70b-b2df-4c6b-9d98-be4edde798e0"}]}],"extension":[{"url":"http://hl7.org/fhir/us/cqfmeasures/StructureDefinition/cqfm-inputParameters","valueReference":{"reference":"#b88d1169-cc9c-4406-90d8-b738b6d5b760-parameters"}},{"url":"http://hl7.org/fhir/us/cqfmeasures/StructureDefinition/cqfm-testCaseDescription","valueMarkdown":"Antidepressant continuous treatment 180 days"}],"modifierExtension":[{"url":"http://hl7.org/fhir/us/cqfmeasures/StructureDefinition/cqfm-isTestCase","valueBoolean":true}],"status":"complete","type":"individual","measure":"https://madie.cms.gov/Measure/AntidepressantMedicationManagementFHIR","period":{"start":"2025-01-01","end":"2025-12-31"},"group":[{"population":[{"code":{"coding":[{"system":"http://terminology.hl7.org/CodeSystem/measure-population","code":"initial-population","display":"Initial Population"}]},"count":1},{"code":{"coding":[{"system":"http://terminology.hl7.org/CodeSystem/measure-population","code":"denominator","display":"Denominator"}]},"count":1},{"code":{"coding":[{"system":"http://terminology.hl7.org/CodeSystem/measure-population","code":"denominator-exclusion","display":"Denominator Exclusion"}]},"count":0},{"code":{"coding":[{"system":"http://terminology.hl7.org/CodeSystem/measure-population","code":"numerator","display":"Numerator"}]},"count":1}]},{"population":[{"code":{"coding":[{"system":"http://terminology.hl7.org/CodeSystem/measure-population","code":"initial-population","display":"Initial Population"}]},"count":1},{"code":{"coding":[{"system":"http://terminology.hl7.org/CodeSystem/measure-population","code":"denominator","display":"Denominator"}]},"count":1},{"code":{"coding":[{"system":"http://terminology.hl7.org/CodeSystem/measure-population","code":"denominator-exclusion","display":"Denominator Exclusion"}]},"count":0},{"code":{"coding":[{"system":"http://terminology.hl7.org/CodeSystem/measure-population","code":"numerator","display":"Numerator"}]},"count":1}]}],"evaluatedResource":[{"reference":"Patient/bff2a70b-b2df-4c6b-9d98-be4edde798e0"},{"reference":"Encounter/Encounter-9"},{"reference":"MedicationDispense/MedicationDispense-9"},{"reference":"Condition/Condition-9"}]},"request":{"method":"PUT","url":"MeasureReport/cc3c682e-a150-4ea9-b1a6-328024386e85"}}]}