{
  "resourceType": "Bundle",
  "id": "98116841646686466847",
  "type": "transaction",
  "entry": [ {
    "fullUrl": "https://madie.cms.gov/Patient/96b6579c-1cee-423f-9433-a72db6fb8a0a",
    "resource": {
      "resourceType": "Patient",
      "id": "96b6579c-1cee-423f-9433-a72db6fb8a0a",
      "meta": {
        "profile": [ "http://hl7.org/fhir/us/qicore/StructureDefinition/qicore-patient" ]
      },
      "extension": [ {
        "url": "http://hl7.org/fhir/us/core/StructureDefinition/us-core-race",
        "extension": [ {
          "url": "ombCategory",
          "valueCoding": {
            "system": "urn:oid:2.16.840.1.113883.6.238",
            "code": "2106-3",
            "display": "White"
          }
        }, {
          "url": "text",
          "valueString": "White"
        } ]
      }, {
        "url": "http://hl7.org/fhir/us/core/StructureDefinition/us-core-ethnicity",
        "extension": [ {
          "url": "ombCategory",
          "valueCoding": {
            "system": "urn:oid:2.16.840.1.113883.6.238",
            "code": "2186-5",
            "display": "Not Hispanic or Latino"
          }
        }, {
          "url": "text",
          "valueString": "Not Hispanic or Latino"
        } ]
      } ],
      "identifier": [ {
        "type": {
          "coding": [ {
            "system": "http://terminology.hl7.org/CodeSystem/v2-0203",
            "code": "MR"
          } ]
        },
        "system": "https://bonnie-fhir.healthit.gov/",
        "value": "6546841651641616513421"
      } ],
      "name": [ {
        "family": "DENEXPopStrat2Pass",
        "given": [ "HospAmbInMP" ]
      } ],
      "gender": "female",
      "birthDate": "1983-01-01"
    },
    "request": {
      "method": "PUT",
      "url": "Patient/96b6579c-1cee-423f-9433-a72db6fb8a0a"
    }
  }, {
    "fullUrl": "https://madie.cms.gov/Encounter/846816468613163156",
    "resource": {
      "resourceType": "Encounter",
      "id": "846816468613163156",
      "meta": {
        "profile": [ "http://hl7.org/fhir/us/qicore/StructureDefinition/qicore-encounter" ]
      },
      "status": "finished",
      "class": {
        "system": "http://terminology.hl7.org/CodeSystem/v3-ActCode",
        "code": "AMB",
        "display": "ambulatory"
      },
      "type": [ {
        "coding": [ {
          "system": "http://www.ama-assn.org/go/cpt",
          "version": "2023",
          "code": "90791"
        } ]
      } ],
      "subject": {
        "reference": "Patient/96b6579c-1cee-423f-9433-a72db6fb8a0a"
      },
      "period": {
        "start": "2024-02-25T14:30:00+00:00",
        "end": "2024-02-25T14:50:00+00:00"
      },
      "length": {
        "value": 0,
        "unit": "days"
      }
    },
    "request": {
      "method": "PUT",
      "url": "Encounter/846816468613163156"
    }
  }, {
    "fullUrl": "https://madie.cms.gov/Observation/98778613516461352131315",
    "resource": {
      "resourceType": "Observation",
      "id": "98778613516461352131315",
      "meta": {
        "profile": [ "http://hl7.org/fhir/us/qicore/StructureDefinition/qicore-observation" ]
      },
      "status": "final",
      "category": [ {
        "coding": [ {
          "system": "http://terminology.hl7.org/CodeSystem/observation-category",
          "code": "survey",
          "display": "Survey"
        } ]
      } ],
      "code": {
        "coding": [ {
          "system": "http://loinc.org",
          "version": "2.73",
          "code": "44261-6"
        } ]
      },
      "subject": {
        "reference": "Patient/96b6579c-1cee-423f-9433-a72db6fb8a0a"
      },
      "effectiveDateTime": "2024-02-25T14:35:00+00:00",
      "valueInteger": 10
    },
    "request": {
      "method": "PUT",
      "url": "Observation/98778613516461352131315"
    }
  }, {
    "fullUrl": "https://madie.cms.gov/Observation/784651651684135131313",
    "resource": {
      "resourceType": "Observation",
      "id": "784651651684135131313",
      "meta": {
        "profile": [ "http://hl7.org/fhir/us/qicore/StructureDefinition/qicore-observation" ]
      },
      "status": "final",
      "category": [ {
        "coding": [ {
          "system": "http://terminology.hl7.org/CodeSystem/observation-category",
          "code": "survey",
          "display": "Survey"
        } ]
      } ],
      "code": {
        "coding": [ {
          "system": "http://loinc.org",
          "version": "2.73",
          "code": "44261-6"
        } ]
      },
      "subject": {
        "reference": "Patient/96b6579c-1cee-423f-9433-a72db6fb8a0a"
      },
      "effectiveDateTime": "2025-02-19T14:30:00+00:00",
      "valueInteger": 3
    },
    "request": {
      "method": "PUT",
      "url": "Observation/784651651684135131313"
    }
  }, {
    "fullUrl": "https://madie.cms.gov/Condition/18961651646466486545",
    "resource": {
      "resourceType": "Condition",
      "id": "18961651646466486545",
      "meta": {
        "profile": [ "http://hl7.org/fhir/us/qicore/StructureDefinition/qicore-condition" ]
      },
      "clinicalStatus": {
        "coding": [ {
          "system": "http://terminology.hl7.org/CodeSystem/condition-clinical",
          "code": "active",
          "display": "active"
        } ]
      },
      "verificationStatus": {
        "coding": [ {
          "system": "http://terminology.hl7.org/CodeSystem/condition-ver-status",
          "code": "confirmed"
        } ]
      },
      "category": [ {
        "coding": [ {
          "system": "http://terminology.hl7.org/CodeSystem/condition-category",
          "code": "problem-list-item",
          "display": "Problem List Item"
        } ]
      } ],
      "code": {
        "coding": [ {
          "system": "http://hl7.org/fhir/sid/icd-10-cm",
          "version": "2023",
          "code": "F32.9"
        } ]
      },
      "subject": {
        "reference": "Patient/96b6579c-1cee-423f-9433-a72db6fb8a0a"
      },
      "onsetDateTime": "2024-02-25T14:35:00+00:00"
    },
    "request": {
      "method": "PUT",
      "url": "Condition/18961651646466486545"
    }
  }, {
    "fullUrl": "https://madie.cms.gov/ServiceRequest/764645645",
    "resource": {
      "resourceType": "ServiceRequest",
      "id": "764645645",
      "meta": {
        "profile": [ "http://hl7.org/fhir/us/qicore/StructureDefinition/qicore-servicerequest" ]
      },
      "status": "active",
      "intent": "order",
      "code": {
        "coding": [ {
          "system": "http://snomed.info/sct",
          "version": "http://snomed.info/sct/731000124108/version/202303",
          "code": "385763009",
          "display": "Hospice Care Ambulatory"
        } ]
      },
      "subject": {
        "reference": "http://GoodHealthcare.com/fhir/Patient/46464646"
      },
      "authoredOn": "2025-01-04T08:00:00.000+00:00"
    },
    "request": {
      "method": "PUT",
      "url": "ServiceRequest/764645645"
    }
  }, {
    "fullUrl": "https://madie.cms.gov/MeasureReport/458f6977-30f3-4a07-9ed1-934d8e558123",
    "resource": {
      "resourceType": "MeasureReport",
      "id": "458f6977-30f3-4a07-9ed1-934d8e558123",
      "meta": {
        "profile": [ "http://hl7.org/fhir/us/cqfmeasures/StructureDefinition/test-case-cqfm" ]
      },
      "contained": [ {
        "resourceType": "Parameters",
        "id": "e2127fe4-faab-4a2a-89ed-42633ae798fd-parameters",
        "parameter": [ {
          "name": "subject",
          "valueString": "96b6579c-1cee-423f-9433-a72db6fb8a0a"
        } ]
      } ],
      "extension": [ {
        "url": "http://hl7.org/fhir/us/cqfmeasures/StructureDefinition/cqfm-inputParameters",
        "valueReference": {
          "reference": "#e2127fe4-faab-4a2a-89ed-42633ae798fd-parameters"
        }
      }, {
        "url": "http://hl7.org/fhir/us/cqfmeasures/StructureDefinition/cqfm-testCaseDescription",
        "valueMarkdown": "Patient has a Dysthymia DX and PHQ-9>9 during the denom ID period. Patient has ambulatory hospice care intervention performed during MP. Should be in denominator exclusion for Strat 2. "
      } ],
      "modifierExtension": [ {
        "url": "http://hl7.org/fhir/us/cqfmeasures/StructureDefinition/cqfm-isTestCase",
        "valueBoolean": true
      } ],
      "status": "complete",
      "type": "individual",
      "measure": "https://madie.cms.gov/Measure/DepressionRemissionatTwelveMonthsFHIR",
      "period": {
        "start": "2025-01-01",
        "end": "2025-12-31"
      },
      "group": [ {
        "population": [ {
          "code": {
            "coding": [ {
              "system": "http://terminology.hl7.org/CodeSystem/measure-population",
              "code": "initial-population",
              "display": "Initial Population"
            } ]
          },
          "count": 1
        }, {
          "code": {
            "coding": [ {
              "system": "http://terminology.hl7.org/CodeSystem/measure-population",
              "code": "denominator",
              "display": "Denominator"
            } ]
          },
          "count": 1
        }, {
          "code": {
            "coding": [ {
              "system": "http://terminology.hl7.org/CodeSystem/measure-population",
              "code": "denominator-exclusion",
              "display": "Denominator Exclusion"
            } ]
          },
          "count": 1
        }, {
          "code": {
            "coding": [ {
              "system": "http://terminology.hl7.org/CodeSystem/measure-population",
              "code": "numerator",
              "display": "Numerator"
            } ]
          },
          "count": 0
        } ]
      } ],
      "evaluatedResource": [ {
        "reference": "Patient/96b6579c-1cee-423f-9433-a72db6fb8a0a"
      }, {
        "reference": "Encounter/846816468613163156"
      }, {
        "reference": "Observation/98778613516461352131315"
      }, {
        "reference": "Observation/784651651684135131313"
      }, {
        "reference": "Condition/18961651646466486545"
      }, {
        "reference": "ServiceRequest/764645645"
      } ]
    },
    "request": {
      "method": "PUT",
      "url": "MeasureReport/458f6977-30f3-4a07-9ed1-934d8e558123"
    }
  } ]
}