{"resourceType":"Bundle","id":"tests-f96a2a48-8d71-49dc-9fde-eb45015151ff-bundle","type":"transaction","entry":[{"fullUrl":"https://madie.cms.gov/Patient/f96a2a48-8d71-49dc-9fde-eb45015151ff","resource":{"resourceType":"Patient","id":"f96a2a48-8d71-49dc-9fde-eb45015151ff","meta":{"profile":["http://hl7.org/fhir/us/qicore/StructureDefinition/qicore-patient"]},"extension":[{"url":"http://hl7.org/fhir/us/core/StructureDefinition/us-core-race","extension":[{"url":"ombCategory","valueCoding":{"system":"urn:oid:2.16.840.1.113883.6.238","code":"2106-3","display":"White"}},{"url":"text","valueString":"White"}]},{"url":"http://hl7.org/fhir/us/core/StructureDefinition/us-core-ethnicity","extension":[{"url":"ombCategory","valueCoding":{"system":"urn:oid:2.16.840.1.113883.6.238","code":"2186-5","display":"Not Hispanic or Latino"}},{"url":"text","valueString":"Not Hispanic or Latino"}]}],"identifier":[{"type":{"coding":[{"system":"http://terminology.hl7.org/CodeSystem/v2-0203","code":"MR"}]},"system":"https://bonnie-fhir.healthit.gov/","value":"630307ce0968f80122478884"}],"name":[{"family":"NUMERPopStrat2Fail","given":["Strat2FUAssessment12MonthsAfterInitial"]}],"gender":"female","birthDate":"1969-01-01"},"request":{"method":"PUT","url":"Patient/f96a2a48-8d71-49dc-9fde-eb45015151ff"}},{"fullUrl":"https://madie.cms.gov/Encounter/846816468613163156","resource":{"resourceType":"Encounter","id":"846816468613163156","meta":{"profile":["http://hl7.org/fhir/us/qicore/StructureDefinition/qicore-encounter"]},"status":"finished","class":{"system":"http://terminology.hl7.org/CodeSystem/v3-ActCode","code":"AMB","display":"ambulatory"},"type":[{"coding":[{"system":"http://www.ama-assn.org/go/cpt","version":"2023","code":"90791"}]}],"subject":{"reference":"Patient/f96a2a48-8d71-49dc-9fde-eb45015151ff"},"period":{"start":"2024-02-25T14:30:00+00:00","end":"2024-02-25T14:50:00+00:00"},"length":{"value":0,"unit":"days"}},"request":{"method":"PUT","url":"Encounter/846816468613163156"}},{"fullUrl":"https://madie.cms.gov/Observation/98778613516461352131315","resource":{"resourceType":"Observation","id":"98778613516461352131315","meta":{"profile":["http://hl7.org/fhir/us/qicore/StructureDefinition/qicore-observation"]},"status":"final","category":[{"coding":[{"system":"http://terminology.hl7.org/CodeSystem/observation-category","code":"survey","display":"Survey"}]}],"code":{"coding":[{"system":"http://loinc.org","version":"2.73","code":"44261-6"}]},"subject":{"reference":"Patient/f96a2a48-8d71-49dc-9fde-eb45015151ff"},"effectiveDateTime":"2024-02-25T14:35:00+00:00","valueInteger":20},"request":{"method":"PUT","url":"Observation/98778613516461352131315"}},{"fullUrl":"https://madie.cms.gov/Observation/784651651684135131313","resource":{"resourceType":"Observation","id":"784651651684135131313","meta":{"profile":["http://hl7.org/fhir/us/qicore/StructureDefinition/qicore-observation"]},"status":"final","category":[{"coding":[{"system":"http://terminology.hl7.org/CodeSystem/observation-category","code":"survey","display":"Survey"}]}],"code":{"coding":[{"system":"http://loinc.org","version":"2.73","code":"44261-6"}]},"subject":{"reference":"Patient/f96a2a48-8d71-49dc-9fde-eb45015151ff"},"effectiveDateTime":"2024-12-19T14:30:00+00:00","valueInteger":4},"request":{"method":"PUT","url":"Observation/784651651684135131313"}},{"fullUrl":"https://madie.cms.gov/Condition/18961651646466486545","resource":{"resourceType":"Condition","id":"18961651646466486545","meta":{"profile":["http://hl7.org/fhir/us/qicore/StructureDefinition/qicore-condition"]},"clinicalStatus":{"coding":[{"system":"http://terminology.hl7.org/CodeSystem/condition-clinical","code":"active","display":"active"}]},"verificationStatus":{"coding":[{"system":"http://terminology.hl7.org/CodeSystem/condition-ver-status","code":"confirmed"}]},"category":[{"coding":[{"system":"http://terminology.hl7.org/CodeSystem/condition-category","code":"problem-list-item","display":"Problem List Item"}]}],"code":{"coding":[{"system":"http://hl7.org/fhir/sid/icd-10-cm","version":"2023","code":"F32.9"}]},"subject":{"reference":"Patient/f96a2a48-8d71-49dc-9fde-eb45015151ff"},"onsetDateTime":"2024-02-25T14:35:00+00:00"},"request":{"method":"PUT","url":"Condition/18961651646466486545"}},{"fullUrl":"https://madie.cms.gov/MeasureReport/00ce1b1a-17f1-4523-9982-98bdd3e40d32","resource":{"resourceType":"MeasureReport","id":"00ce1b1a-17f1-4523-9982-98bdd3e40d32","meta":{"profile":["http://hl7.org/fhir/us/cqfmeasures/StructureDefinition/test-case-cqfm"]},"contained":[{"resourceType":"Parameters","id":"b452531c-1981-4134-acf4-4badab09e753-parameters","parameter":[{"name":"subject","valueString":"f96a2a48-8d71-49dc-9fde-eb45015151ff"}]}],"extension":[{"url":"http://hl7.org/fhir/us/cqfmeasures/StructureDefinition/cqfm-inputParameters","valueReference":{"reference":"#b452531c-1981-4134-acf4-4badab09e753-parameters"}},{"url":"http://hl7.org/fhir/us/cqfmeasures/StructureDefinition/cqfm-testCaseDescription","valueMarkdown":"Patient is 55 years old and has a Dysthymia diagnosis, an encounter with PHQ-9>9 during Denom ID period and a PHQ-9<5 that occurred before start of MAP. Patient should be denom for strat 2 "}],"modifierExtension":[{"url":"http://hl7.org/fhir/us/cqfmeasures/StructureDefinition/cqfm-isTestCase","valueBoolean":true}],"status":"complete","type":"individual","measure":"https://madie.cms.gov/Measure/DepressionRemissionatTwelveMonthsFHIR","period":{"start":"2025-01-01","end":"2025-12-31"},"group":[{"population":[{"code":{"coding":[{"system":"http://terminology.hl7.org/CodeSystem/measure-population","code":"initial-population","display":"Initial Population"}]},"count":1},{"code":{"coding":[{"system":"http://terminology.hl7.org/CodeSystem/measure-population","code":"denominator","display":"Denominator"}]},"count":1},{"code":{"coding":[{"system":"http://terminology.hl7.org/CodeSystem/measure-population","code":"denominator-exclusion","display":"Denominator Exclusion"}]},"count":0},{"code":{"coding":[{"system":"http://terminology.hl7.org/CodeSystem/measure-population","code":"numerator","display":"Numerator"}]},"count":0}]}],"evaluatedResource":[{"reference":"Patient/f96a2a48-8d71-49dc-9fde-eb45015151ff"},{"reference":"Encounter/846816468613163156"},{"reference":"Observation/98778613516461352131315"},{"reference":"Observation/784651651684135131313"},{"reference":"Condition/18961651646466486545"}]},"request":{"method":"PUT","url":"MeasureReport/00ce1b1a-17f1-4523-9982-98bdd3e40d32"}}]}