{"resourceType":"Bundle","id":"tests-72a7c508-6ab5-444d-b306-686793360c8c-bundle","type":"transaction","entry":[{"fullUrl":"https://madie.cms.gov/Patient/72a7c508-6ab5-444d-b306-686793360c8c","resource":{"resourceType":"Patient","id":"72a7c508-6ab5-444d-b306-686793360c8c","meta":{"profile":["http://hl7.org/fhir/us/qicore/StructureDefinition/qicore-patient"]},"extension":[{"url":"http://hl7.org/fhir/us/core/StructureDefinition/us-core-race","extension":[{"url":"ombCategory","valueCoding":{"system":"urn:oid:2.16.840.1.113883.6.238","code":"2106-3","display":"White"}},{"url":"text","valueString":"White"}]},{"url":"http://hl7.org/fhir/us/core/StructureDefinition/us-core-ethnicity","extension":[{"url":"ombCategory","valueCoding":{"system":"urn:oid:2.16.840.1.113883.6.238","code":"2186-5","display":"Not Hispanic or Latino"}},{"url":"text","valueString":"Not Hispanic or Latino"}]}],"identifier":[{"type":{"coding":[{"system":"http://terminology.hl7.org/CodeSystem/v2-0203","code":"MR"}]},"system":"https://bonnie-fhir.healthit.gov/","value":"630307be0968f80122477542"}],"name":[{"family":"IPPPopStrat2Fail","given":["PHQ9Lessthan9"]}],"gender":"female","birthDate":"1987-01-01"},"request":{"method":"PUT","url":"Patient/72a7c508-6ab5-444d-b306-686793360c8c"}},{"fullUrl":"https://madie.cms.gov/Encounter/846816468613163156","resource":{"resourceType":"Encounter","id":"846816468613163156","meta":{"profile":["http://hl7.org/fhir/us/qicore/StructureDefinition/qicore-encounter"]},"status":"finished","class":{"system":"http://terminology.hl7.org/CodeSystem/v3-ActCode","code":"AMB","display":"ambulatory"},"type":[{"coding":[{"system":"http://www.ama-assn.org/go/cpt","version":"2023","code":"90791"}]}],"subject":{"reference":"Patient/72a7c508-6ab5-444d-b306-686793360c8c"},"period":{"start":"2024-02-25T14:30:00+00:00","end":"2024-02-25T14:50:00+00:00"},"length":{"value":0.0,"unit":"days"}},"request":{"method":"PUT","url":"Encounter/846816468613163156"}},{"fullUrl":"https://madie.cms.gov/Observation/98778613516461352131315","resource":{"resourceType":"Observation","id":"98778613516461352131315","meta":{"profile":["http://hl7.org/fhir/us/qicore/StructureDefinition/qicore-observation"]},"status":"final","category":[{"coding":[{"system":"http://terminology.hl7.org/CodeSystem/observation-category","code":"survey","display":"Survey"}]}],"code":{"coding":[{"system":"http://loinc.org","version":"2.73","code":"44261-6"}]},"subject":{"reference":"Patient/72a7c508-6ab5-444d-b306-686793360c8c"},"effectiveDateTime":"2024-02-25T14:35:00+00:00","valueInteger":8},"request":{"method":"PUT","url":"Observation/98778613516461352131315"}},{"fullUrl":"https://madie.cms.gov/Observation/784651651684135131313","resource":{"resourceType":"Observation","id":"784651651684135131313","meta":{"profile":["http://hl7.org/fhir/us/qicore/StructureDefinition/qicore-observation"]},"status":"final","category":[{"coding":[{"system":"http://terminology.hl7.org/CodeSystem/observation-category","code":"survey","display":"Survey"}]}],"code":{"coding":[{"system":"http://loinc.org","version":"2.73","code":"44261-6"}]},"subject":{"reference":"Patient/72a7c508-6ab5-444d-b306-686793360c8c"},"effectiveDateTime":"2025-02-19T14:30:00+00:00","valueInteger":4},"request":{"method":"PUT","url":"Observation/784651651684135131313"}},{"fullUrl":"https://madie.cms.gov/Condition/18961651646466486545","resource":{"resourceType":"Condition","id":"18961651646466486545","meta":{"profile":["http://hl7.org/fhir/us/qicore/StructureDefinition/qicore-condition"]},"clinicalStatus":{"coding":[{"system":"http://terminology.hl7.org/CodeSystem/condition-clinical","code":"active","display":"active"}]},"verificationStatus":{"coding":[{"system":"http://terminology.hl7.org/CodeSystem/condition-ver-status","code":"confirmed"}]},"category":[{"coding":[{"system":"http://terminology.hl7.org/CodeSystem/condition-category","code":"problem-list-item","display":"Problem List Item"}]}],"code":{"coding":[{"system":"http://hl7.org/fhir/sid/icd-10-cm","version":"2023","code":"F32.9"}]},"subject":{"reference":"Patient/72a7c508-6ab5-444d-b306-686793360c8c"},"onsetDateTime":"2024-02-25T14:35:00+00:00"},"request":{"method":"PUT","url":"Condition/18961651646466486545"}},{"fullUrl":"https://madie.cms.gov/Encounter/13546841616846141","resource":{"resourceType":"Encounter","id":"13546841616846141","meta":{"profile":["http://hl7.org/fhir/us/qicore/StructureDefinition/qicore-encounter"]},"status":"finished","class":{"system":"http://terminology.hl7.org/CodeSystem/v3-ActCode","code":"HH","display":"home health"},"type":[{"coding":[{"system":"http://snomed.info/sct","version":"http://snomed.info/sct/731000124108/version/202303","code":"305284002"}]}],"subject":{"reference":"Patient/72a7c508-6ab5-444d-b306-686793360c8c"},"period":{"start":"2024-12-31T08:00:00+00:00","end":"2025-01-01T12:00:00+00:00"},"length":{"value":0.0,"unit":"days"}},"request":{"method":"PUT","url":"Encounter/13546841616846141"}},{"fullUrl":"https://madie.cms.gov/MeasureReport/dd84085e-186b-47ec-92ea-9a0453c226fc","resource":{"resourceType":"MeasureReport","id":"dd84085e-186b-47ec-92ea-9a0453c226fc","meta":{"profile":["http://hl7.org/fhir/us/cqfmeasures/StructureDefinition/test-case-cqfm"]},"contained":[{"resourceType":"Parameters","id":"42cdea99-c31a-4954-afe7-03639ecc53fa-parameters","parameter":[{"name":"subject","valueString":"72a7c508-6ab5-444d-b306-686793360c8c"}]}],"extension":[{"url":"http://hl7.org/fhir/us/cqfmeasures/StructureDefinition/cqfm-inputParameters","valueReference":{"reference":"#42cdea99-c31a-4954-afe7-03639ecc53fa-parameters"}},{"url":"http://hl7.org/fhir/us/cqfmeasures/StructureDefinition/cqfm-testCaseDescription","valueMarkdown":"Patient is 36 and has Major depression diagnosis during denom ID period. Patient has PHQ-9 score below 9 during denom ID period. Patient should not be in initial population. "}],"modifierExtension":[{"url":"http://hl7.org/fhir/us/cqfmeasures/StructureDefinition/cqfm-isTestCase","valueBoolean":true}],"status":"complete","type":"individual","measure":"https://madie.cms.gov/Measure/DepressionRemissionatTwelveMonthsFHIR","period":{"start":"2025-01-01","end":"2025-12-31"},"evaluatedResource":[{"reference":"Patient/72a7c508-6ab5-444d-b306-686793360c8c"},{"reference":"Encounter/846816468613163156"},{"reference":"Observation/98778613516461352131315"},{"reference":"Observation/784651651684135131313"},{"reference":"Condition/18961651646466486545"},{"reference":"Encounter/13546841616846141"}]},"request":{"method":"PUT","url":"MeasureReport/dd84085e-186b-47ec-92ea-9a0453c226fc"}}]}