{"resourceType":"Bundle","id":"tests-9b4f7024-eb2e-4896-90e7-13638aefbe92-bundle","type":"transaction","entry":[{"fullUrl":"https://madie.cms.gov/Patient/9b4f7024-eb2e-4896-90e7-13638aefbe92","resource":{"resourceType":"Patient","id":"9b4f7024-eb2e-4896-90e7-13638aefbe92","meta":{"profile":["http://hl7.org/fhir/us/qicore/StructureDefinition/qicore-patient"]},"extension":[{"url":"http://hl7.org/fhir/us/core/StructureDefinition/us-core-race","extension":[{"url":"ombCategory","valueCoding":{"system":"urn:oid:2.16.840.1.113883.6.238","code":"2106-3","display":"White"}},{"url":"text","valueString":"White"}]},{"url":"http://hl7.org/fhir/us/core/StructureDefinition/us-core-ethnicity","extension":[{"url":"ombCategory","valueCoding":{"system":"urn:oid:2.16.840.1.113883.6.238","code":"2186-5","display":"Not Hispanic or Latino"}},{"url":"text","valueString":"Not Hispanic or Latino"}]}],"identifier":[{"type":{"coding":[{"system":"http://terminology.hl7.org/CodeSystem/v2-0203","code":"MR"}]},"system":"https://bonnie-fhir.healthit.gov/","value":"6546841651641616513421"}],"name":[{"family":"DENEXPopStrat2Pass","given":["HospiceProcedureInMP"]}],"gender":"female","birthDate":"1956-01-01"},"request":{"method":"PUT","url":"Patient/9b4f7024-eb2e-4896-90e7-13638aefbe92"}},{"fullUrl":"https://madie.cms.gov/Encounter/846816468613163156","resource":{"resourceType":"Encounter","id":"846816468613163156","meta":{"profile":["http://hl7.org/fhir/us/qicore/StructureDefinition/qicore-encounter"]},"status":"finished","class":{"system":"http://terminology.hl7.org/CodeSystem/v3-ActCode","code":"AMB","display":"ambulatory"},"type":[{"coding":[{"system":"http://www.ama-assn.org/go/cpt","version":"2023","code":"90791"}]}],"subject":{"reference":"Patient/9b4f7024-eb2e-4896-90e7-13638aefbe92"},"period":{"start":"2024-02-25T14:30:00+00:00","end":"2024-02-25T14:50:00+00:00"},"length":{"value":0,"unit":"days"}},"request":{"method":"PUT","url":"Encounter/846816468613163156"}},{"fullUrl":"https://madie.cms.gov/Observation/98778613516461352131315","resource":{"resourceType":"Observation","id":"98778613516461352131315","meta":{"profile":["http://hl7.org/fhir/us/qicore/StructureDefinition/qicore-observation"]},"status":"final","category":[{"coding":[{"system":"http://terminology.hl7.org/CodeSystem/observation-category","code":"survey","display":"Survey"}]}],"code":{"coding":[{"system":"http://loinc.org","version":"2.73","code":"44261-6"}]},"subject":{"reference":"Patient/9b4f7024-eb2e-4896-90e7-13638aefbe92"},"effectiveDateTime":"2024-02-25T14:35:00+00:00","valueInteger":10},"request":{"method":"PUT","url":"Observation/98778613516461352131315"}},{"fullUrl":"https://madie.cms.gov/Observation/784651651684135131313","resource":{"resourceType":"Observation","id":"784651651684135131313","meta":{"profile":["http://hl7.org/fhir/us/qicore/StructureDefinition/qicore-observation"]},"status":"final","category":[{"coding":[{"system":"http://terminology.hl7.org/CodeSystem/observation-category","code":"survey","display":"Survey"}]}],"code":{"coding":[{"system":"http://loinc.org","version":"2.73","code":"44261-6"}]},"subject":{"reference":"Patient/9b4f7024-eb2e-4896-90e7-13638aefbe92"},"effectiveDateTime":"2025-02-19T14:30:00+00:00","valueInteger":3},"request":{"method":"PUT","url":"Observation/784651651684135131313"}},{"fullUrl":"https://madie.cms.gov/Condition/18961651646466486545","resource":{"resourceType":"Condition","id":"18961651646466486545","meta":{"profile":["http://hl7.org/fhir/us/qicore/StructureDefinition/qicore-condition"]},"clinicalStatus":{"coding":[{"system":"http://terminology.hl7.org/CodeSystem/condition-clinical","code":"active","display":"active"}]},"verificationStatus":{"coding":[{"system":"http://terminology.hl7.org/CodeSystem/condition-ver-status","code":"confirmed"}]},"category":[{"coding":[{"system":"http://terminology.hl7.org/CodeSystem/condition-category","code":"problem-list-item","display":"Problem List Item"}]}],"code":{"coding":[{"system":"http://hl7.org/fhir/sid/icd-10-cm","version":"2023","code":"F32.9"}]},"subject":{"reference":"Patient/9b4f7024-eb2e-4896-90e7-13638aefbe92"},"onsetDateTime":"2024-02-25T14:35:00+00:00"},"request":{"method":"PUT","url":"Condition/18961651646466486545"}},{"fullUrl":"https://madie.cms.gov/Procedure/HospiceProcedureInMP","resource":{"resourceType":"Procedure","id":"HospiceProcedureInMP","meta":{"profile":["http://hl7.org/fhir/us/qicore/StructureDefinition/qicore-procedure"]},"extension":[{"url":"http://hl7.org/fhir/us/qicore/StructureDefinition/qicore-recorded","valueDateTime":"2025-02-01T08:00:00.000+00:00"}],"status":"completed","code":{"coding":[{"system":"http://snomed.info/sct","version":"http://snomed.info/sct/731000124108/version/202303","code":"385765002","display":"Hospice care management (procedure)","userSelected":true}]},"subject":{"reference":"Patient/9b4f7024-eb2e-4896-90e7-13638aefbe92"},"performedPeriod":{"start":"2025-01-01T08:00:00.000+00:00","end":"2025-02-01T08:15:00.000+00:00"}},"request":{"method":"PUT","url":"Procedure/HospiceProcedureInMP"}},{"fullUrl":"https://madie.cms.gov/MeasureReport/a831facf-b318-4258-85ad-e37c638081c3","resource":{"resourceType":"MeasureReport","id":"a831facf-b318-4258-85ad-e37c638081c3","meta":{"profile":["http://hl7.org/fhir/us/cqfmeasures/StructureDefinition/test-case-cqfm"]},"contained":[{"resourceType":"Parameters","id":"668ea27b-cd2d-451f-a396-0f11389739a6-parameters","parameter":[{"name":"subject","valueString":"9b4f7024-eb2e-4896-90e7-13638aefbe92"}]}],"extension":[{"url":"http://hl7.org/fhir/us/cqfmeasures/StructureDefinition/cqfm-inputParameters","valueReference":{"reference":"#668ea27b-cd2d-451f-a396-0f11389739a6-parameters"}},{"url":"http://hl7.org/fhir/us/cqfmeasures/StructureDefinition/cqfm-testCaseDescription","valueMarkdown":"Patient has a Dysthymia DX and PHQ-9>9 during the denom ID period. Patient has Hospice procedure during MP. Should be in denominator exclusion for Strat 2. "}],"modifierExtension":[{"url":"http://hl7.org/fhir/us/cqfmeasures/StructureDefinition/cqfm-isTestCase","valueBoolean":true}],"status":"complete","type":"individual","measure":"https://madie.cms.gov/Measure/DepressionRemissionatTwelveMonthsFHIR","period":{"start":"2025-01-01","end":"2025-12-31"},"group":[{"population":[{"code":{"coding":[{"system":"http://terminology.hl7.org/CodeSystem/measure-population","code":"initial-population","display":"Initial Population"}]},"count":1},{"code":{"coding":[{"system":"http://terminology.hl7.org/CodeSystem/measure-population","code":"denominator","display":"Denominator"}]},"count":1},{"code":{"coding":[{"system":"http://terminology.hl7.org/CodeSystem/measure-population","code":"denominator-exclusion","display":"Denominator Exclusion"}]},"count":1},{"code":{"coding":[{"system":"http://terminology.hl7.org/CodeSystem/measure-population","code":"numerator","display":"Numerator"}]},"count":0}]}],"evaluatedResource":[{"reference":"Patient/9b4f7024-eb2e-4896-90e7-13638aefbe92"},{"reference":"Encounter/846816468613163156"},{"reference":"Observation/98778613516461352131315"},{"reference":"Observation/784651651684135131313"},{"reference":"Condition/18961651646466486545"},{"reference":"Procedure/HospiceProcedureInMP"}]},"request":{"method":"PUT","url":"MeasureReport/a831facf-b318-4258-85ad-e37c638081c3"}}]}