{
  "resourceType": "Bundle",
  "id": "6129133502c62a011f2e65ed",
  "type": "transaction",
  "entry": [ {
    "fullUrl": "https://madie.cms.gov/Patient/4d94ffcd-39a0-4e40-83c1-6093ff82d641",
    "resource": {
      "resourceType": "Patient",
      "id": "4d94ffcd-39a0-4e40-83c1-6093ff82d641",
      "meta": {
        "profile": [ "http://hl7.org/fhir/us/qicore/StructureDefinition/qicore-patient" ]
      },
      "text": {
        "status": "generated",
        "div": "<div xmlns=\"http://www.w3.org/1999/xhtml\"><div class=\"hapiHeaderText\">IPEncDuringMPExpiresAfterIPEnc <b>IPPASS </b></div><table class=\"hapiPropertyTable\"><tbody><tr><td>Identifier</td><td>841d34360819f0ad9f40fe7dece9713e</td></tr><tr><td>Date of birth</td><td><span>20 August 1994</span></td></tr></tbody></table></div>"
      },
      "extension": [ {
        "url": "http://hl7.org/fhir/us/core/StructureDefinition/us-core-race",
        "extension": [ {
          "url": "ombCategory",
          "valueCoding": {
            "system": "urn:oid:2.16.840.1.113883.6.238",
            "code": "1002-5",
            "display": "American Indian or Alaska Native",
            "userSelected": true
          }
        }, {
          "url": "text",
          "valueString": "American Indian or Alaska Native"
        } ]
      }, {
        "url": "http://hl7.org/fhir/us/core/StructureDefinition/us-core-ethnicity",
        "extension": [ {
          "url": "ombCategory",
          "valueCoding": {
            "system": "urn:oid:2.16.840.1.113883.6.238",
            "code": "2135-2",
            "display": "Hispanic or Latino",
            "userSelected": true
          }
        }, {
          "url": "text",
          "valueString": "Hispanic or Latino"
        } ]
      } ],
      "identifier": [ {
        "type": {
          "coding": [ {
            "system": "http://terminology.hl7.org/CodeSystem/v2-0203",
            "code": "MR"
          } ]
        },
        "system": "https://bonnie-fhir.healthit.gov/",
        "value": "6129133502c62a011f2e65ed"
      } ],
      "active": true,
      "name": [ {
        "use": "usual",
        "family": "IPPass",
        "given": [ "IPEncDuringMPExpiresAfterIPEnc" ]
      } ],
      "gender": "male",
      "birthDate": "2005-08-20",
      "deceasedDateTime": "2025-12-20T08:00:00.000Z"
    },
    "request": {
      "method": "POST",
      "url": "Patient/4d94ffcd-39a0-4e40-83c1-6093ff82d641"
    }
  }, {
    "fullUrl": "https://madie.cms.gov/Encounter/5c954112b8484612c37f2781",
    "resource": {
      "resourceType": "Encounter",
      "id": "5c954112b8484612c37f2781",
      "meta": {
        "profile": [ "http://hl7.org/fhir/us/qicore/StructureDefinition/qicore-encounter" ]
      },
      "status": "finished",
      "class": {
        "system": "http://terminology.hl7.org/CodeSystem/v3-ActCode",
        "code": "IMP",
        "display": "inpatient encounter",
        "userSelected": true
      },
      "type": [ {
        "coding": [ {
          "system": "http://snomed.info/sct",
          "code": "32485007"
        } ]
      } ],
      "subject": {
        "reference": "Patient/4d94ffcd-39a0-4e40-83c1-6093ff82d641"
      },
      "period": {
        "start": "2025-08-21T00:00:00.000+00:00",
        "end": "2025-12-19T23:59:00.000+00:00"
      },
      "length": {
        "value": 120,
        "unit": "days"
      },
      "diagnosis": [ {
        "condition": {
          "reference": "Condition/ischemic-stroke-7f18"
        },
        "use": {
          "coding": [ {
            "system": "http://terminology.hl7.org/CodeSystem/diagnosis-role",
            "code": "billing",
            "display": "Billing"
          } ]
        },
        "rank": 1
      } ]
    },
    "request": {
      "method": "POST",
      "url": "Encounter/5c954112b8484612c37f2781"
    }
  }, {
    "fullUrl": "https://madie.cms.gov/Condition/ischemic-stroke-7f18",
    "resource": {
      "resourceType": "Condition",
      "id": "ischemic-stroke-7f18",
      "meta": {
        "profile": [ "http://hl7.org/fhir/us/qicore/StructureDefinition/qicore-condition" ]
      },
      "clinicalStatus": {
        "coding": [ {
          "system": "http://terminology.hl7.org/CodeSystem/condition-clinical",
          "code": "active"
        } ]
      },
      "verificationStatus": {
        "coding": [ {
          "system": "http://terminology.hl7.org/CodeSystem/condition-ver-status",
          "code": "confirmed"
        } ]
      },
      "category": [ {
        "coding": [ {
          "system": "http://terminology.hl7.org/CodeSystem/condition-category",
          "code": "encounter-diagnosis",
          "display": "Encounter Diagnosis"
        } ]
      } ],
      "code": {
        "coding": [ {
          "system": "http://snomed.info/sct",
          "version": "2020-09",
          "code": "111297002",
          "display": "Nonparalytic stroke (disorder)",
          "userSelected": true
        } ]
      },
      "subject": {
        "reference": "Patient/4d94ffcd-39a0-4e40-83c1-6093ff82d641"
      },
      "recordedDate": "2025-07-15T08:00:00.000+00:00"
    },
    "request": {
      "method": "POST",
      "url": "Condition/ischemic-stroke-7f18"
    }
  }, {
    "fullUrl": "https://madie.cms.gov/Coverage/1",
    "resource": {
      "resourceType": "Coverage",
      "id": "1",
      "meta": {
        "profile": [ "http://hl7.org/fhir/us/qicore/StructureDefinition/qicore-coverage" ]
      },
      "status": "active",
      "beneficiary": {
        "reference": "Patient/4d94ffcd-39a0-4e40-83c1-6093ff82d641"
      },
      "payor": [ {
        "reference": "Organization/123456"
      } ]
    },
    "request": {
      "method": "POST",
      "url": "Coverage/1"
    }
  }, {
    "fullUrl": "https://madie.cms.gov/Organization/123456",
    "resource": {
      "resourceType": "Organization",
      "id": "123456",
      "meta": {
        "profile": [ "http://hl7.org/fhir/us/qicore/StructureDefinition/qicore-organization" ]
      },
      "identifier": [ {
        "use": "temp",
        "system": "urn:oid:2.16.840.1.113883.4.4",
        "value": "21-3259825"
      } ],
      "active": true,
      "type": [ {
        "coding": [ {
          "system": "http://terminology.hl7.org/CodeSystem/organization-type",
          "code": "pay",
          "display": "Payer"
        } ]
      } ],
      "name": "Blue Cross Blue Shield of Texas",
      "telecom": [ {
        "system": "phone",
        "value": "(+1) 972-766-6900"
      } ],
      "address": [ {
        "use": "billing",
        "type": "postal",
        "line": [ "P.O. Box 660044" ],
        "city": "Dallas",
        "state": "TX",
        "postalCode": "75266-0044",
        "country": "USA"
      } ]
    },
    "request": {
      "method": "POST",
      "url": "Organization/123456"
    }
  }, {
    "fullUrl": "https://madie.cms.gov/MeasureReport/9cdda94f-2345-4946-bea7-ab7a51e24db6",
    "resource": {
      "resourceType": "MeasureReport",
      "id": "9cdda94f-2345-4946-bea7-ab7a51e24db6",
      "meta": {
        "profile": [ "http://hl7.org/fhir/us/cqfmeasures/StructureDefinition/test-case-cqfm" ]
      },
      "contained": [ {
        "resourceType": "Parameters",
        "id": "4e6ecdce-307f-4d5f-baf5-69e0f30ccb52-parameters",
        "parameter": [ {
          "name": "subject",
          "valueString": "4d94ffcd-39a0-4e40-83c1-6093ff82d641"
        } ]
      } ],
      "extension": [ {
        "url": "http://hl7.org/fhir/us/cqfmeasures/StructureDefinition/cqfm-inputParameters",
        "valueReference": {
          "reference": "#4e6ecdce-307f-4d5f-baf5-69e0f30ccb52-parameters"
        }
      }, {
        "url": "http://hl7.org/fhir/us/cqfmeasures/StructureDefinition/cqfm-testCaseDescription",
        "valueMarkdown": "Patient is 18 with Non-Elective Inpatient Encounter (LOS 120 days) with principal diagnosis of ischemic stroke ends during MP, expired after EncIP\n"
      } ],
      "modifierExtension": [ {
        "url": "http://hl7.org/fhir/us/cqfmeasures/StructureDefinition/cqfm-isTestCase",
        "valueBoolean": true
      } ],
      "status": "complete",
      "type": "individual",
      "measure": "https://madie.cms.gov/Measure/DischargedonAntithromboticTherapyFHIR",
      "period": {
        "start": "2025-01-01",
        "end": "2025-12-31"
      },
      "group": [ {
        "population": [ {
          "code": {
            "coding": [ {
              "system": "http://terminology.hl7.org/CodeSystem/measure-population",
              "code": "initial-population",
              "display": "Initial Population"
            } ]
          },
          "count": 1
        }, {
          "code": {
            "coding": [ {
              "system": "http://terminology.hl7.org/CodeSystem/measure-population",
              "code": "denominator",
              "display": "Denominator"
            } ]
          },
          "count": 1
        }, {
          "code": {
            "coding": [ {
              "system": "http://terminology.hl7.org/CodeSystem/measure-population",
              "code": "denominator-exclusion",
              "display": "Denominator Exclusion"
            } ]
          },
          "count": 0
        }, {
          "code": {
            "coding": [ {
              "system": "http://terminology.hl7.org/CodeSystem/measure-population",
              "code": "numerator",
              "display": "Numerator"
            } ]
          },
          "count": 0
        }, {
          "code": {
            "coding": [ {
              "system": "http://terminology.hl7.org/CodeSystem/measure-population",
              "code": "denominator-exception",
              "display": "Denominator Exception"
            } ]
          },
          "count": 0
        } ]
      } ],
      "evaluatedResource": [ {
        "reference": "https://madie.cms.gov/Patient/4d94ffcd-39a0-4e40-83c1-6093ff82d641"
      }, {
        "reference": "https://madie.cms.gov/Encounter/5c954112b8484612c37f2781"
      }, {
        "reference": "https://madie.cms.gov/Condition/ischemic-stroke-7f18"
      }, {
        "reference": "https://madie.cms.gov/Coverage/1"
      }, {
        "reference": "https://madie.cms.gov/Organization/123456"
      } ]
    },
    "request": {
      "method": "POST",
      "url": "MeasureReport/9cdda94f-2345-4946-bea7-ab7a51e24db6"
    }
  } ]
}