{"resourceType":"Bundle","id":"tests-ec508dbb-76f6-4878-b8a2-114ea8e82297-bundle","type":"transaction","entry":[{"fullUrl":"https://madie.cms.gov/Patient/ec508dbb-76f6-4878-b8a2-114ea8e82297","resource":{"resourceType":"Patient","id":"ec508dbb-76f6-4878-b8a2-114ea8e82297","meta":{"profile":["http://hl7.org/fhir/us/qicore/StructureDefinition/qicore-patient"]},"extension":[{"url":"http://hl7.org/fhir/us/core/StructureDefinition/us-core-race","extension":[{"url":"ombCategory","valueCoding":{"system":"urn:oid:2.16.840.1.113883.6.238","code":"1002-5","display":"American Indian or Alaska Native"}},{"url":"text","valueString":"American Indian or Alaska Native"}]},{"url":"http://hl7.org/fhir/us/core/StructureDefinition/us-core-ethnicity","extension":[{"url":"ombCategory","valueCoding":{"system":"urn:oid:2.16.840.1.113883.6.238","code":"2135-2","display":"Hispanic or Latino"}},{"url":"text","valueString":"Hispanic or Latino"}]}],"identifier":[{"type":{"coding":[{"system":"http://terminology.hl7.org/CodeSystem/v2-0203","code":"MR"}]},"system":"https://bonnie-fhir.healthit.gov/","value":"9871563684351313"}],"name":[{"family":"NUMERFail","given":["ACEARBRequest1MinAfterEncEdge"]}],"gender":"female","birthDate":"1932-01-21"},"request":{"method":"PUT","url":"Patient/ec508dbb-76f6-4878-b8a2-114ea8e82297"}},{"fullUrl":"https://madie.cms.gov/Encounter/7464135131","resource":{"resourceType":"Encounter","id":"c4f88584-8cdb-4ea5-ad69-2de2c11b2302","meta":{"profile":["http://hl7.org/fhir/us/qicore/StructureDefinition/qicore-encounter"]},"status":"finished","class":{"system":"http://terminology.hl7.org/CodeSystem/v3-ActCode","code":"AMB","display":"ambulatory"},"type":[{"coding":[{"system":"http://snomed.info/sct","version":"http://snomed.info/sct/731000124108/version/20240301","code":"185463005","display":"Visit out of hours (procedure)"}]}],"subject":{"reference":"Patient/ec508dbb-76f6-4878-b8a2-114ea8e82297"},"period":{"start":"2025-06-08T08:00:00.000+00:00","end":"2025-06-08T08:15:00.000+00:00"}},"request":{"method":"PUT","url":"Encounter/c4f88584-8cdb-4ea5-ad69-2de2c11b2302"}},{"fullUrl":"https://madie.cms.gov/Encounter/7874613513","resource":{"resourceType":"Encounter","id":"68c7dd46-5796-4095-9ab1-1d604bca8210","meta":{"profile":["http://hl7.org/fhir/us/qicore/StructureDefinition/qicore-encounter"]},"status":"finished","class":{"system":"http://terminology.hl7.org/CodeSystem/v3-ActCode","code":"AMB","display":"ambulatory"},"type":[{"coding":[{"system":"http://snomed.info/sct","version":"http://snomed.info/sct/731000124108/version/20240301","code":"185316007","display":"Indirect encounter (procedure)"}]}],"subject":{"reference":"Patient/ec508dbb-76f6-4878-b8a2-114ea8e82297"},"period":{"start":"2025-07-17T08:00:00.000+00:00","end":"2025-07-17T08:15:00.000+00:00"}},"request":{"method":"PUT","url":"Encounter/68c7dd46-5796-4095-9ab1-1d604bca8210"}},{"fullUrl":"https://madie.cms.gov/Condition/79843513631","resource":{"resourceType":"Condition","id":"3e781693-8498-44bb-bfbf-87f644bdbeff","meta":{"profile":["http://hl7.org/fhir/us/qicore/StructureDefinition/qicore-condition"]},"clinicalStatus":{"coding":[{"system":"http://terminology.hl7.org/CodeSystem/condition-clinical","code":"active","display":"active"}]},"verificationStatus":{"coding":[{"system":"http://terminology.hl7.org/CodeSystem/condition-ver-status","code":"confirmed","display":"Confirmed"}]},"category":[{"coding":[{"system":"http://terminology.hl7.org/CodeSystem/condition-category","code":"problem-list-item","display":"Problem List Item"}]}],"code":{"coding":[{"system":"http://snomed.info/sct","version":"http://snomed.info/sct/731000124108/version/20240301","code":"10091002","display":"High output heart failure (disorder)"}]},"subject":{"reference":"Patient/ec508dbb-76f6-4878-b8a2-114ea8e82297"},"onsetPeriod":{"start":"2025-06-08T08:00:00.000+00:00"}},"request":{"method":"PUT","url":"Condition/3e781693-8498-44bb-bfbf-87f644bdbeff"}},{"fullUrl":"https://madie.cms.gov/Condition/7843135413153","resource":{"resourceType":"Condition","id":"6ad5dec8-90ec-4891-849d-6a28f70468d4","meta":{"profile":["http://hl7.org/fhir/us/qicore/StructureDefinition/qicore-condition"]},"clinicalStatus":{"coding":[{"system":"http://terminology.hl7.org/CodeSystem/condition-clinical","code":"active","display":"active"}]},"verificationStatus":{"coding":[{"system":"http://terminology.hl7.org/CodeSystem/condition-ver-status","code":"confirmed","display":"Confirmed"}]},"category":[{"coding":[{"system":"http://terminology.hl7.org/CodeSystem/condition-category","code":"problem-list-item","display":"Problem List Item"}]}],"code":{"coding":[{"system":"http://snomed.info/sct","version":"http://snomed.info/sct/731000124108/version/20240301","code":"981000124106","display":"Moderate left ventricular systolic dysfunction (disorder)"}]},"subject":{"reference":"Patient/ec508dbb-76f6-4878-b8a2-114ea8e82297"},"onsetPeriod":{"start":"2025-05-22T08:00:00.000+00:00"}},"request":{"method":"PUT","url":"Condition/6ad5dec8-90ec-4891-849d-6a28f70468d4"}},{"fullUrl":"https://madie.cms.gov/MedicationRequest/7651463436315","resource":{"resourceType":"MedicationRequest","id":"0a8b9b6e-6d75-41f7-b844-24c083fcf4d4","meta":{"profile":["http://hl7.org/fhir/us/qicore/StructureDefinition/qicore-medicationrequest"]},"status":"completed","intent":"order","medicationReference":{"reference":"Medication/46131653513"},"subject":{"reference":"Patient/ec508dbb-76f6-4878-b8a2-114ea8e82297"},"authoredOn":"2025-06-08T08:16:00.000+00:00","requester":{"reference":"Practitioner/6513513131"}},"request":{"method":"PUT","url":"MedicationRequest/0a8b9b6e-6d75-41f7-b844-24c083fcf4d4"}},{"fullUrl":"https://madie.cms.gov/Practitioner/6513513131","resource":{"resourceType":"Practitioner","id":"596d8ba2-38a4-48e4-aaf8-9a56434d4120","meta":{"profile":["http://hl7.org/fhir/us/qicore/StructureDefinition/qicore-practitioner"]},"identifier":[{"use":"temp","system":"urn:oid:2.16.840.1.113883.4.336","value":"Practitioner-23"}],"active":true,"name":[{"family":"Careful","given":["Adam"],"prefix":["Dr"]}],"address":[{"use":"home","line":["534 Erewhon St"],"city":"PleasantVille","state":"UT","postalCode":"84414"}],"qualification":[{"identifier":[{"system":"http://goodhealthcare.org/UniversityIdentifier","value":"12345"}],"code":{"coding":[{"system":"http://terminology.hl7.org/CodeSystem/v2-0360|2.7","code":"BS","display":"Bachelor of Science"}],"text":"Bachelor of Science"},"period":{"start":"1995"},"issuer":{"display":"Good Healthcare"}}]},"request":{"method":"PUT","url":"Practitioner/596d8ba2-38a4-48e4-aaf8-9a56434d4120"}},{"fullUrl":"https://madie.cms.gov/Medication/46131653513","resource":{"resourceType":"Medication","id":"07449969-1e77-482a-a9b7-fa98c81d5e00","meta":{"profile":["http://hl7.org/fhir/us/qicore/StructureDefinition/qicore-medication"]},"code":{"coding":[{"system":"http://www.nlm.nih.gov/research/umls/rxnorm","version":"04012024","code":"1000001","display":"amlodipine 5 MG / hydrochlorothiazide 25 MG / olmesartan medoxomil 40 MG Oral Tablet"}]}},"request":{"method":"PUT","url":"Medication/07449969-1e77-482a-a9b7-fa98c81d5e00"}},{"fullUrl":"https://madie.cms.gov/MeasureReport/0c507fc1-4901-46ab-8c3c-6b9054cb6038","resource":{"resourceType":"MeasureReport","id":"0c507fc1-4901-46ab-8c3c-6b9054cb6038","meta":{"profile":["http://hl7.org/fhir/us/cqfmeasures/StructureDefinition/test-case-cqfm"]},"contained":[{"resourceType":"Parameters","id":"f384538a-7e23-450c-87c8-d139853911c0-parameters","parameter":[{"name":"subject","valueString":"ec508dbb-76f6-4878-b8a2-114ea8e82297"}]}],"extension":[{"url":"http://hl7.org/fhir/us/cqfmeasures/StructureDefinition/cqfm-inputParameters","valueReference":{"reference":"#f384538a-7e23-450c-87c8-d139853911c0-parameters"}},{"url":"http://hl7.org/fhir/us/cqfmeasures/StructureDefinition/cqfm-testCaseDescription","valueMarkdown":"Angiotensin Medication Request authored 1 minute after edge of encounter is not counted in Numerator"}],"modifierExtension":[{"url":"http://hl7.org/fhir/us/cqfmeasures/StructureDefinition/cqfm-isTestCase","valueBoolean":true}],"status":"complete","type":"individual","measure":"https://madie.cms.gov/Measure/HFACEIorARBorARNIforLVSDFHIR","period":{"start":"2025-01-01","end":"2025-12-31"},"group":[{"population":[{"code":{"coding":[{"system":"http://terminology.hl7.org/CodeSystem/measure-population","code":"initial-population","display":"Initial Population"}]},"count":1},{"code":{"coding":[{"system":"http://terminology.hl7.org/CodeSystem/measure-population","code":"denominator","display":"Denominator"}]},"count":1},{"code":{"coding":[{"system":"http://terminology.hl7.org/CodeSystem/measure-population","code":"denominator-exclusion","display":"Denominator Exclusion"}]},"count":0},{"code":{"coding":[{"system":"http://terminology.hl7.org/CodeSystem/measure-population","code":"numerator","display":"Numerator"}]},"count":0},{"code":{"coding":[{"system":"http://terminology.hl7.org/CodeSystem/measure-population","code":"denominator-exception","display":"Denominator Exception"}]},"count":0}]}]},"request":{"method":"PUT","url":"MeasureReport/0c507fc1-4901-46ab-8c3c-6b9054cb6038"}}]}