{"resourceType":"Bundle","id":"tests-d18e37a6-7b66-4e7c-b305-692872c13f8d-bundle","type":"transaction","entry":[{"fullUrl":"https://madie.cms.gov/Patient/d18e37a6-7b66-4e7c-b305-692872c13f8d","resource":{"resourceType":"Patient","id":"d18e37a6-7b66-4e7c-b305-692872c13f8d","meta":{"profile":["http://hl7.org/fhir/us/qicore/StructureDefinition/qicore-patient"]},"extension":[{"url":"http://hl7.org/fhir/us/core/StructureDefinition/us-core-race","extension":[{"url":"ombCategory","valueCoding":{"system":"urn:oid:2.16.840.1.113883.6.238","code":"1002-5","display":"American Indian or Alaska Native"}},{"url":"text","valueString":"American Indian or Alaska Native"}]},{"url":"http://hl7.org/fhir/us/core/StructureDefinition/us-core-ethnicity","extension":[{"url":"ombCategory","valueCoding":{"system":"urn:oid:2.16.840.1.113883.6.238","code":"2186-5","display":"Not Hispanic or Latino"}},{"url":"text","valueString":"Not Hispanic or Latino"}]}],"identifier":[{"type":{"coding":[{"system":"http://terminology.hl7.org/CodeSystem/v2-0203","code":"MR"}]},"system":"https://bonnie-fhir.healthit.gov/","value":"431385494631"}],"name":[{"family":"DENEXCEPPass","given":["AllergyDxToACEInhib"]}],"gender":"male","birthDate":"1968-06-14"},"request":{"method":"PUT","url":"Patient/d18e37a6-7b66-4e7c-b305-692872c13f8d"}},{"fullUrl":"https://madie.cms.gov/Encounter/235464641313134","resource":{"resourceType":"Encounter","id":"448967f2-291b-44cf-9da2-d3c0152c824b","meta":{"profile":["http://hl7.org/fhir/us/qicore/StructureDefinition/qicore-encounter"]},"status":"finished","class":{"system":"http://terminology.hl7.org/CodeSystem/v3-ActCode","code":"AMB","display":"ambulatory"},"type":[{"coding":[{"system":"http://snomed.info/sct","version":"http://snomed.info/sct/731000124108/version/20240301","code":"18170008","display":"Subsequent nursing facility visit (procedure)"}]}],"subject":{"reference":"Patient/d18e37a6-7b66-4e7c-b305-692872c13f8d"},"period":{"start":"2025-03-31T14:40:00.000+00:00","end":"2025-03-31T14:40:00.000+00:00"}},"request":{"method":"PUT","url":"Encounter/448967f2-291b-44cf-9da2-d3c0152c824b"}},{"fullUrl":"https://madie.cms.gov/Encounter/5846214654131354","resource":{"resourceType":"Encounter","id":"fd9c0442-6157-43ba-9dd8-c87da7724d30","meta":{"profile":["http://hl7.org/fhir/us/qicore/StructureDefinition/qicore-encounter"]},"status":"finished","class":{"system":"http://terminology.hl7.org/CodeSystem/v3-ActCode","code":"AMB","display":"ambulatory"},"type":[{"coding":[{"system":"http://snomed.info/sct","version":"http://snomed.info/sct/731000124108/version/20240301","code":"185466002","display":"Home visit for urgent condition (procedure)"}]}],"subject":{"reference":"Patient/d18e37a6-7b66-4e7c-b305-692872c13f8d"},"period":{"start":"2025-05-15T11:50:00.000+00:00","end":"2025-05-15T11:50:00.000+00:00"}},"request":{"method":"PUT","url":"Encounter/fd9c0442-6157-43ba-9dd8-c87da7724d30"}},{"fullUrl":"https://madie.cms.gov/Condition/3251454612131312","resource":{"resourceType":"Condition","id":"4cf85e39-1847-4024-8143-5d14d4762704","meta":{"profile":["http://hl7.org/fhir/us/qicore/StructureDefinition/qicore-condition"]},"clinicalStatus":{"coding":[{"system":"http://terminology.hl7.org/CodeSystem/condition-clinical","code":"active","display":"active"}]},"verificationStatus":{"coding":[{"system":"http://terminology.hl7.org/CodeSystem/condition-ver-status","code":"confirmed","display":"Confirmed"}]},"category":[{"coding":[{"system":"http://terminology.hl7.org/CodeSystem/condition-category","code":"problem-list-item","display":"Problem List Item"}]}],"code":{"coding":[{"system":"http://snomed.info/sct","version":"http://snomed.info/sct/731000124108/version/20240301","code":"10091002","display":"High output heart failure (disorder)"}]},"subject":{"reference":"Patient/d18e37a6-7b66-4e7c-b305-692872c13f8d"},"onsetPeriod":{"start":"2024-05-17T10:00:00.000+00:00"}},"request":{"method":"PUT","url":"Condition/4cf85e39-1847-4024-8143-5d14d4762704"}},{"fullUrl":"https://madie.cms.gov/Condition/4164645134331124","resource":{"resourceType":"Condition","id":"208b5a64-cf92-4fe8-9c6c-9c4f2235fa96","meta":{"profile":["http://hl7.org/fhir/us/qicore/StructureDefinition/qicore-condition"]},"clinicalStatus":{"coding":[{"system":"http://terminology.hl7.org/CodeSystem/condition-clinical","code":"active","display":"Active"}]},"verificationStatus":{"coding":[{"system":"http://terminology.hl7.org/CodeSystem/condition-ver-status","code":"confirmed","display":"Confirmed"}]},"category":[{"coding":[{"system":"http://terminology.hl7.org/CodeSystem/condition-category","code":"problem-list-item","display":"Problem List Item"}]}],"code":{"coding":[{"system":"http://snomed.info/sct","version":"http://snomed.info/sct/731000124108/version/20240301","code":"991000124109","display":"Severe left ventricular systolic dysfunction (disorder)"}]},"subject":{"reference":"Patient/d18e37a6-7b66-4e7c-b305-692872c13f8d"},"onsetPeriod":{"start":"2025-03-25T16:00:00.000+00:00","end":"2025-03-30T16:00:00.000+00:00"}},"request":{"method":"PUT","url":"Condition/208b5a64-cf92-4fe8-9c6c-9c4f2235fa96"}},{"fullUrl":"https://madie.cms.gov/Condition/7876135133144131","resource":{"resourceType":"Condition","id":"26eeb022-2e9e-46ce-9ed1-50361199ee7b","meta":{"profile":["http://hl7.org/fhir/us/qicore/StructureDefinition/qicore-condition"]},"clinicalStatus":{"coding":[{"system":"http://terminology.hl7.org/CodeSystem/condition-clinical","code":"active","display":"active"}]},"verificationStatus":{"coding":[{"system":"http://terminology.hl7.org/CodeSystem/condition-ver-status","code":"confirmed","display":"Confirmed"}]},"category":[{"coding":[{"system":"http://terminology.hl7.org/CodeSystem/condition-category","code":"problem-list-item","display":"Problem List Item"}]}],"code":{"coding":[{"system":"http://snomed.info/sct","version":"http://snomed.info/sct/731000124108/version/20230901","code":"609541004","display":"Non-allergic hypersensitivity to fosinopril (finding)"}]},"subject":{"reference":"Patient/d18e37a6-7b66-4e7c-b305-692872c13f8d"},"onsetPeriod":{"start":"2024-09-25"}},"request":{"method":"PUT","url":"Condition/26eeb022-2e9e-46ce-9ed1-50361199ee7b"}},{"fullUrl":"https://madie.cms.gov/MeasureReport/f6a17016-f1bd-4c22-8b09-4ea6ebdb533b","resource":{"resourceType":"MeasureReport","id":"f6a17016-f1bd-4c22-8b09-4ea6ebdb533b","meta":{"profile":["http://hl7.org/fhir/us/cqfmeasures/StructureDefinition/test-case-cqfm"]},"contained":[{"resourceType":"Parameters","id":"6b1a087e-d47c-4547-a6a2-98e5d1b0e0a8-parameters","parameter":[{"name":"subject","valueString":"d18e37a6-7b66-4e7c-b305-692872c13f8d"}]}],"extension":[{"url":"http://hl7.org/fhir/us/cqfmeasures/StructureDefinition/cqfm-inputParameters","valueReference":{"reference":"#6b1a087e-d47c-4547-a6a2-98e5d1b0e0a8-parameters"}},{"url":"http://hl7.org/fhir/us/cqfmeasures/StructureDefinition/cqfm-testCaseDescription","valueMarkdown":"Patient has 2 ambulatory encounters, HF diagnosis and LVSD and meets denominator exception with confirmed ACE inhibitor allergy diagnosis"}],"modifierExtension":[{"url":"http://hl7.org/fhir/us/cqfmeasures/StructureDefinition/cqfm-isTestCase","valueBoolean":true}],"status":"complete","type":"individual","measure":"https://madie.cms.gov/Measure/HFACEIorARBorARNIforLVSDFHIR","period":{"start":"2025-01-01","end":"2025-12-31"},"group":[{"population":[{"code":{"coding":[{"system":"http://terminology.hl7.org/CodeSystem/measure-population","code":"initial-population","display":"Initial Population"}]},"count":1},{"code":{"coding":[{"system":"http://terminology.hl7.org/CodeSystem/measure-population","code":"denominator","display":"Denominator"}]},"count":1},{"code":{"coding":[{"system":"http://terminology.hl7.org/CodeSystem/measure-population","code":"denominator-exclusion","display":"Denominator Exclusion"}]},"count":0},{"code":{"coding":[{"system":"http://terminology.hl7.org/CodeSystem/measure-population","code":"numerator","display":"Numerator"}]},"count":0},{"code":{"coding":[{"system":"http://terminology.hl7.org/CodeSystem/measure-population","code":"denominator-exception","display":"Denominator Exception"}]},"count":1}]}]},"request":{"method":"PUT","url":"MeasureReport/f6a17016-f1bd-4c22-8b09-4ea6ebdb533b"}}]}