{"resourceType":"Bundle","id":"tests-16dce5e6-f8f4-404b-9039-c534deb20736-bundle","type":"transaction","entry":[{"fullUrl":"https://madie.cms.gov/Patient/16dce5e6-f8f4-404b-9039-c534deb20736","resource":{"resourceType":"Patient","id":"16dce5e6-f8f4-404b-9039-c534deb20736","meta":{"profile":["http://hl7.org/fhir/us/qicore/StructureDefinition/qicore-patient"]},"extension":[{"url":"http://hl7.org/fhir/us/core/StructureDefinition/us-core-race","extension":[{"url":"ombCategory","valueCoding":{"system":"urn:oid:2.16.840.1.113883.6.238","code":"2028-9","display":"Asian"}},{"url":"text","valueString":"Asian"}]},{"url":"http://hl7.org/fhir/us/core/StructureDefinition/us-core-ethnicity","extension":[{"url":"ombCategory","valueCoding":{"system":"urn:oid:2.16.840.1.113883.6.238","code":"2135-2","display":"Hispanic or Latino"}},{"url":"text","valueString":"Hispanic or Latino"}]}],"identifier":[{"system":"http://hospital.smarthealthit.org","value":"999999995"}],"name":[{"family":"Bertha","given":["Betty"]}],"gender":"female","birthDate":"1958-01-01"},"request":{"method":"PUT","url":"Patient/16dce5e6-f8f4-404b-9039-c534deb20736"}},{"fullUrl":"https://madie.cms.gov/Encounter/Encounter-18","resource":{"resourceType":"Encounter","id":"Encounter-18","meta":{"profile":["http://hl7.org/fhir/us/qicore/StructureDefinition/qicore-encounter"]},"status":"finished","class":{"system":"http://terminology.hl7.org/CodeSystem/v3-ActCode","code":"AMB","display":"ambulatory"},"type":[{"coding":[{"system":"http://www.ama-assn.org/go/cpt","version":"2023","code":"92002","display":"Ophthalmological services: medical examination and evaluation with initiation of diagnostic and treatment program; intermediate, new patient"}]}],"subject":{"reference":"Patient/16dce5e6-f8f4-404b-9039-c534deb20736"},"period":{"start":"2025-01-01T00:00:00.000Z","end":"2025-01-01T00:15:00.000Z"}},"request":{"method":"PUT","url":"Encounter/Encounter-18"}},{"fullUrl":"https://madie.cms.gov/Condition/Condition-5","resource":{"resourceType":"Condition","id":"Condition-5","meta":{"profile":["http://hl7.org/fhir/us/qicore/StructureDefinition/qicore-condition"]},"clinicalStatus":{"coding":[{"system":"http://terminology.hl7.org/CodeSystem/condition-clinical","code":"inactive"}]},"category":[{"coding":[{"system":"http://terminology.hl7.org/CodeSystem/condition-category","code":"problem-list-item","display":"Problem List Item"}]}],"code":{"coding":[{"system":"http://snomed.info/sct","code":"415238003","display":"Rapid eye movement sleep behavior disorder (disorder)"}]},"subject":{"reference":"Patient/16dce5e6-f8f4-404b-9039-c534deb20736"},"onsetDateTime":"2023-01-01T00:00:00.000Z","abatementDateTime":"2023-12-31T00:00:00.000Z"},"request":{"method":"PUT","url":"Condition/Condition-5"}},{"fullUrl":"https://madie.cms.gov/MedicationRequest/MedicationRequest-21","resource":{"resourceType":"MedicationRequest","id":"MedicationRequest-21","meta":{"profile":["http://hl7.org/fhir/us/qicore/StructureDefinition/qicore-medicationrequest"]},"status":"active","intent":"order","category":[{"coding":[{"system":"http://terminology.hl7.org/CodeSystem/medicationrequest-category","code":"discharge","display":"Discharge"}]}],"medicationCodeableConcept":{"coding":[{"system":"http://www.nlm.nih.gov/research/umls/rxnorm","code":"197745","display":"guanfacine 1 MG Oral Tablet","userSelected":true}]},"subject":{"reference":"Patient/16dce5e6-f8f4-404b-9039-c534deb20736"},"authoredOn":"2025-01-02T00:00:00.000Z","requester":{"reference":"Practitioner/practitioner-123456"}},"request":{"method":"PUT","url":"MedicationRequest/MedicationRequest-21"}},{"fullUrl":"https://madie.cms.gov/MedicationRequest/MedicationRequest-22","resource":{"resourceType":"MedicationRequest","id":"MedicationRequest-22","meta":{"profile":["http://hl7.org/fhir/us/qicore/StructureDefinition/qicore-medicationrequest"]},"status":"active","intent":"order","category":[{"coding":[{"system":"http://terminology.hl7.org/CodeSystem/medicationrequest-category","code":"discharge","display":"Discharge"}]}],"medicationCodeableConcept":{"coding":[{"system":"http://www.nlm.nih.gov/research/umls/rxnorm","code":"197746","display":"guanfacine 2 MG Oral Tablet","userSelected":true}]},"subject":{"reference":"Patient/16dce5e6-f8f4-404b-9039-c534deb20736"},"authoredOn":"2025-01-03T00:00:00.000Z","requester":{"reference":"Practitioner/practitioner-123456"}},"request":{"method":"PUT","url":"MedicationRequest/MedicationRequest-22"}},{"fullUrl":"https://madie.cms.gov/MedicationRequest/MedicationRequest-23","resource":{"resourceType":"MedicationRequest","id":"MedicationRequest-23","meta":{"profile":["http://hl7.org/fhir/us/qicore/StructureDefinition/qicore-medicationrequest"]},"status":"active","intent":"order","category":[{"coding":[{"system":"http://terminology.hl7.org/CodeSystem/medicationrequest-category","code":"discharge","display":"Discharge"}]}],"medicationCodeableConcept":{"coding":[{"system":"http://www.nlm.nih.gov/research/umls/rxnorm","code":"1298088","display":"flurazepam hydrochloride 15 MG Oral Capsule","userSelected":true}]},"subject":{"reference":"Patient/16dce5e6-f8f4-404b-9039-c534deb20736"},"authoredOn":"2025-01-01T00:00:00.000Z","requester":{"reference":"Practitioner/practitioner-123456"}},"request":{"method":"PUT","url":"MedicationRequest/MedicationRequest-23"}},{"fullUrl":"https://madie.cms.gov/MedicationRequest/MedicationRequest-24","resource":{"resourceType":"MedicationRequest","id":"MedicationRequest-24","meta":{"profile":["http://hl7.org/fhir/us/qicore/StructureDefinition/qicore-medicationrequest"]},"status":"active","intent":"order","category":[{"coding":[{"system":"http://terminology.hl7.org/CodeSystem/medicationrequest-category","code":"discharge","display":"Discharge"}]}],"medicationCodeableConcept":{"coding":[{"system":"http://www.nlm.nih.gov/research/umls/rxnorm","code":"1298088","display":"flurazepam hydrochloride 15 MG Oral Capsule","userSelected":true}]},"subject":{"reference":"Patient/16dce5e6-f8f4-404b-9039-c534deb20736"},"authoredOn":"2025-01-02T00:15:00.000Z","requester":{"reference":"Practitioner/practitioner-123456"}},"request":{"method":"PUT","url":"MedicationRequest/MedicationRequest-24"}},{"fullUrl":"https://madie.cms.gov/MeasureReport/b29ff17c-4010-4f64-a752-1023977675d0","resource":{"resourceType":"MeasureReport","id":"b29ff17c-4010-4f64-a752-1023977675d0","meta":{"profile":["http://hl7.org/fhir/us/cqfmeasures/StructureDefinition/test-case-cqfm"]},"contained":[{"resourceType":"Parameters","id":"fd12d1c7-a1fd-415b-a235-4e884c3cbcc1-parameters","parameter":[{"name":"subject","valueString":"16dce5e6-f8f4-404b-9039-c534deb20736"}]}],"extension":[{"url":"http://hl7.org/fhir/us/cqfmeasures/StructureDefinition/cqfm-inputParameters","valueReference":{"reference":"#fd12d1c7-a1fd-415b-a235-4e884c3cbcc1-parameters"}},{"url":"http://hl7.org/fhir/us/cqfmeasures/StructureDefinition/cqfm-testCaseDescription","valueMarkdown":"Patient meets both numerators 1 and 2 criteria"}],"modifierExtension":[{"url":"http://hl7.org/fhir/us/cqfmeasures/StructureDefinition/cqfm-isTestCase","valueBoolean":true}],"status":"complete","type":"individual","measure":"https://madie.cms.gov/Measure/UseofHighRiskMedicationsintheElderlyFHIR","period":{"start":"2025-01-01","end":"2025-12-31"},"group":[{"population":[{"code":{"coding":[{"system":"http://terminology.hl7.org/CodeSystem/measure-population","code":"initial-population","display":"Initial Population"}]},"count":1},{"code":{"coding":[{"system":"http://terminology.hl7.org/CodeSystem/measure-population","code":"denominator","display":"Denominator"}]},"count":1},{"code":{"coding":[{"system":"http://terminology.hl7.org/CodeSystem/measure-population","code":"denominator-exclusion","display":"Denominator Exclusion"}]},"count":0},{"code":{"coding":[{"system":"http://terminology.hl7.org/CodeSystem/measure-population","code":"numerator","display":"Numerator"}]},"count":1}]},{"population":[{"code":{"coding":[{"system":"http://terminology.hl7.org/CodeSystem/measure-population","code":"initial-population","display":"Initial Population"}]},"count":1},{"code":{"coding":[{"system":"http://terminology.hl7.org/CodeSystem/measure-population","code":"denominator","display":"Denominator"}]},"count":1},{"code":{"coding":[{"system":"http://terminology.hl7.org/CodeSystem/measure-population","code":"denominator-exclusion","display":"Denominator Exclusion"}]},"count":0},{"code":{"coding":[{"system":"http://terminology.hl7.org/CodeSystem/measure-population","code":"numerator","display":"Numerator"}]},"count":1}]},{"population":[{"code":{"coding":[{"system":"http://terminology.hl7.org/CodeSystem/measure-population","code":"initial-population","display":"Initial Population"}]},"count":1},{"code":{"coding":[{"system":"http://terminology.hl7.org/CodeSystem/measure-population","code":"denominator","display":"Denominator"}]},"count":1},{"code":{"coding":[{"system":"http://terminology.hl7.org/CodeSystem/measure-population","code":"denominator-exclusion","display":"Denominator Exclusion"}]},"count":0},{"code":{"coding":[{"system":"http://terminology.hl7.org/CodeSystem/measure-population","code":"numerator","display":"Numerator"}]},"count":1}]}],"evaluatedResource":[{"reference":"Patient/16dce5e6-f8f4-404b-9039-c534deb20736"},{"reference":"Encounter/Encounter-18"},{"reference":"Condition/Condition-5"},{"reference":"MedicationRequest/MedicationRequest-21"},{"reference":"MedicationRequest/MedicationRequest-22"},{"reference":"MedicationRequest/MedicationRequest-23"},{"reference":"MedicationRequest/MedicationRequest-24"}]},"request":{"method":"PUT","url":"MeasureReport/b29ff17c-4010-4f64-a752-1023977675d0"}}]}