{"resourceType":"Bundle","id":"tests-bc51c7a3-0141-45f1-abae-4ef1ef2c12f7-bundle","type":"transaction","entry":[{"fullUrl":"https://madie.cms.gov/Patient/bc51c7a3-0141-45f1-abae-4ef1ef2c12f7","resource":{"resourceType":"Patient","id":"bc51c7a3-0141-45f1-abae-4ef1ef2c12f7","meta":{"profile":["http://hl7.org/fhir/us/qicore/StructureDefinition/qicore-patient"]},"extension":[{"url":"http://hl7.org/fhir/us/core/StructureDefinition/us-core-race","extension":[{"url":"ombCategory","valueCoding":{"system":"urn:oid:2.16.840.1.113883.6.238","code":"2028-9","display":"Asian"}},{"url":"text","valueString":"Asian"}]},{"url":"http://hl7.org/fhir/us/core/StructureDefinition/us-core-ethnicity","extension":[{"url":"ombCategory","valueCoding":{"system":"urn:oid:2.16.840.1.113883.6.238","code":"2135-2","display":"Hispanic or Latino"}},{"url":"text","valueString":"Hispanic or Latino"}]}],"identifier":[{"system":"http://hospital.smarthealthit.org","value":"999999995"}],"name":[{"family":"Bertha","given":["Betty"]}],"gender":"female","birthDate":"1958-01-01"},"request":{"method":"PUT","url":"Patient/bc51c7a3-0141-45f1-abae-4ef1ef2c12f7"}},{"fullUrl":"https://madie.cms.gov/Encounter/Encounter-14","resource":{"resourceType":"Encounter","id":"Encounter-14","meta":{"profile":["http://hl7.org/fhir/us/qicore/StructureDefinition/qicore-encounter"]},"status":"finished","class":{"system":"http://terminology.hl7.org/CodeSystem/v3-ActCode","code":"AMB","display":"ambulatory"},"type":[{"coding":[{"system":"http://www.ama-assn.org/go/cpt","version":"2023","code":"99397","display":"Periodic comprehensive preventive medicine reevaluation and management of an individual including an age and gender appropriate history, examination, counseling/anticipatory guidance/risk factor reduction interventions, and the ordering of laboratory/diagnostic procedures, established patient; 65 years and older"}]}],"subject":{"reference":"Patient/bc51c7a3-0141-45f1-abae-4ef1ef2c12f7"},"period":{"start":"2025-01-01T00:00:00.000Z","end":"2025-01-01T00:15:00.000Z"}},"request":{"method":"PUT","url":"Encounter/Encounter-14"}},{"fullUrl":"https://madie.cms.gov/MedicationRequest/MedicationRequest-13","resource":{"resourceType":"MedicationRequest","id":"MedicationRequest-13","meta":{"profile":["http://hl7.org/fhir/us/qicore/StructureDefinition/qicore-medicationrequest"]},"status":"active","intent":"order","category":[{"coding":[{"system":"http://terminology.hl7.org/CodeSystem/medicationrequest-category","code":"discharge","display":"Discharge"}]}],"medicationCodeableConcept":{"coding":[{"system":"http://www.nlm.nih.gov/research/umls/rxnorm","code":"1648759","display":"nitrofurantoin, macrocrystals 100 MG Oral Capsule","userSelected":true}]},"subject":{"reference":"Patient/bc51c7a3-0141-45f1-abae-4ef1ef2c12f7"},"authoredOn":"2025-01-02T00:00:00.000Z","requester":{"reference":"Practitioner/practitioner-123456"},"dosageInstruction":[{"timing":{"repeat":{"boundsPeriod":{"start":"2025-01-01T00:00:00.000Z","end":"2025-03-02T00:00:00.000Z"}}}}],"dispenseRequest":{"expectedSupplyDuration":{"value":60,"system":"http://unitsofmeasure.org","code":"d"}}},"request":{"method":"PUT","url":"MedicationRequest/MedicationRequest-13"}},{"fullUrl":"https://madie.cms.gov/MedicationRequest/MedicationRequest-14","resource":{"resourceType":"MedicationRequest","id":"MedicationRequest-14","meta":{"profile":["http://hl7.org/fhir/us/qicore/StructureDefinition/qicore-medicationrequest"]},"status":"active","intent":"order","category":[{"coding":[{"system":"http://terminology.hl7.org/CodeSystem/medicationrequest-category","code":"discharge","display":"Discharge"}]}],"medicationCodeableConcept":{"coding":[{"system":"http://www.nlm.nih.gov/research/umls/rxnorm","code":"311989","display":"nitrofurantoin 5 MG/ML Oral Suspension","userSelected":true}]},"subject":{"reference":"Patient/bc51c7a3-0141-45f1-abae-4ef1ef2c12f7"},"authoredOn":"2025-01-03T00:00:00.000Z","requester":{"reference":"Practitioner/practitioner-123456"},"dosageInstruction":[{"timing":{"repeat":{"boundsPeriod":{"start":"2025-03-01T00:00:00.000Z","end":"2025-03-30T00:00:00.000Z"}}}}],"dispenseRequest":{"expectedSupplyDuration":{"value":29,"system":"http://unitsofmeasure.org","code":"d"}}},"request":{"method":"PUT","url":"MedicationRequest/MedicationRequest-14"}},{"fullUrl":"https://madie.cms.gov/MeasureReport/69c383d1-0118-442a-be04-e58e593fe3a2","resource":{"resourceType":"MeasureReport","id":"69c383d1-0118-442a-be04-e58e593fe3a2","meta":{"profile":["http://hl7.org/fhir/us/cqfmeasures/StructureDefinition/test-case-cqfm"]},"contained":[{"resourceType":"Parameters","id":"2faca293-43bf-4ef2-ba1c-fa96844f5aae-parameters","parameter":[{"name":"subject","valueString":"bc51c7a3-0141-45f1-abae-4ef1ef2c12f7"}]}],"extension":[{"url":"http://hl7.org/fhir/us/cqfmeasures/StructureDefinition/cqfm-inputParameters","valueReference":{"reference":"#2faca293-43bf-4ef2-ba1c-fa96844f5aae-parameters"}},{"url":"http://hl7.org/fhir/us/cqfmeasures/StructureDefinition/cqfm-testCaseDescription","valueMarkdown":"Anti-Infective medication supply is less than 90"}],"modifierExtension":[{"url":"http://hl7.org/fhir/us/cqfmeasures/StructureDefinition/cqfm-isTestCase","valueBoolean":true}],"status":"complete","type":"individual","measure":"https://madie.cms.gov/Measure/UseofHighRiskMedicationsintheElderlyFHIR","period":{"start":"2025-01-01","end":"2025-12-31"},"group":[{"population":[{"code":{"coding":[{"system":"http://terminology.hl7.org/CodeSystem/measure-population","code":"initial-population","display":"Initial Population"}]},"count":1},{"code":{"coding":[{"system":"http://terminology.hl7.org/CodeSystem/measure-population","code":"denominator","display":"Denominator"}]},"count":1},{"code":{"coding":[{"system":"http://terminology.hl7.org/CodeSystem/measure-population","code":"denominator-exclusion","display":"Denominator Exclusion"}]},"count":0},{"code":{"coding":[{"system":"http://terminology.hl7.org/CodeSystem/measure-population","code":"numerator","display":"Numerator"}]},"count":0}]},{"population":[{"code":{"coding":[{"system":"http://terminology.hl7.org/CodeSystem/measure-population","code":"initial-population","display":"Initial Population"}]},"count":1},{"code":{"coding":[{"system":"http://terminology.hl7.org/CodeSystem/measure-population","code":"denominator","display":"Denominator"}]},"count":1},{"code":{"coding":[{"system":"http://terminology.hl7.org/CodeSystem/measure-population","code":"denominator-exclusion","display":"Denominator Exclusion"}]},"count":0},{"code":{"coding":[{"system":"http://terminology.hl7.org/CodeSystem/measure-population","code":"numerator","display":"Numerator"}]},"count":0}]},{"population":[{"code":{"coding":[{"system":"http://terminology.hl7.org/CodeSystem/measure-population","code":"initial-population","display":"Initial Population"}]},"count":1},{"code":{"coding":[{"system":"http://terminology.hl7.org/CodeSystem/measure-population","code":"denominator","display":"Denominator"}]},"count":1},{"code":{"coding":[{"system":"http://terminology.hl7.org/CodeSystem/measure-population","code":"denominator-exclusion","display":"Denominator Exclusion"}]},"count":0},{"code":{"coding":[{"system":"http://terminology.hl7.org/CodeSystem/measure-population","code":"numerator","display":"Numerator"}]},"count":0}]}],"evaluatedResource":[{"reference":"Patient/bc51c7a3-0141-45f1-abae-4ef1ef2c12f7"},{"reference":"Encounter/Encounter-14"},{"reference":"MedicationRequest/MedicationRequest-13"},{"reference":"MedicationRequest/MedicationRequest-14"}]},"request":{"method":"PUT","url":"MeasureReport/69c383d1-0118-442a-be04-e58e593fe3a2"}}]}