{"resourceType":"Bundle","id":"tests-dc48151b-0e7e-4fd0-a32e-912ada04bb29-bundle","type":"transaction","entry":[{"fullUrl":"https://madie.cms.gov/Patient/dc48151b-0e7e-4fd0-a32e-912ada04bb29","resource":{"resourceType":"Patient","id":"dc48151b-0e7e-4fd0-a32e-912ada04bb29","meta":{"profile":["http://hl7.org/fhir/us/qicore/StructureDefinition/qicore-patient"]},"extension":[{"url":"http://hl7.org/fhir/us/core/StructureDefinition/us-core-race","extension":[{"url":"ombCategory","valueCoding":{"system":"urn:oid:2.16.840.1.113883.6.238","code":"2028-9","display":"Asian"}},{"url":"text","valueString":"Asian"}]},{"url":"http://hl7.org/fhir/us/core/StructureDefinition/us-core-ethnicity","extension":[{"url":"ombCategory","valueCoding":{"system":"urn:oid:2.16.840.1.113883.6.238","code":"2135-2","display":"Hispanic or Latino"}},{"url":"text","valueString":"Hispanic or Latino"}]}],"identifier":[{"system":"http://hospital.smarthealthit.org","value":"999999995"}],"name":[{"family":"Bertha","given":["Betty"]}],"gender":"female","birthDate":"1958-01-01"},"request":{"method":"PUT","url":"Patient/dc48151b-0e7e-4fd0-a32e-912ada04bb29"}},{"fullUrl":"https://madie.cms.gov/Encounter/Encounter-17","resource":{"resourceType":"Encounter","id":"Encounter-17","meta":{"profile":["http://hl7.org/fhir/us/qicore/StructureDefinition/qicore-encounter"]},"status":"finished","class":{"system":"http://terminology.hl7.org/CodeSystem/v3-ActCode","code":"AMB","display":"ambulatory"},"type":[{"coding":[{"system":"http://snomed.info/sct","code":"18170008","display":"Subsequent nursing facility visit (procedure)"}]}],"subject":{"reference":"Patient/dc48151b-0e7e-4fd0-a32e-912ada04bb29"},"period":{"start":"2025-01-01T00:00:00.000Z","end":"2025-01-01T00:15:00.000Z"}},"request":{"method":"PUT","url":"Encounter/Encounter-17"}},{"fullUrl":"https://madie.cms.gov/Condition/Condition-4","resource":{"resourceType":"Condition","id":"Condition-4","meta":{"profile":["http://hl7.org/fhir/us/qicore/StructureDefinition/qicore-condition"]},"clinicalStatus":{"coding":[{"system":"http://terminology.hl7.org/CodeSystem/condition-clinical","code":"inactive"}]},"category":[{"coding":[{"system":"http://terminology.hl7.org/CodeSystem/condition-category","code":"problem-list-item","display":"Problem List Item"}]}],"code":{"coding":[{"system":"http://snomed.info/sct","code":"10981006","display":"Severe mixed bipolar I disorder with psychotic features (disorder)"}]},"subject":{"reference":"Patient/dc48151b-0e7e-4fd0-a32e-912ada04bb29"},"onsetDateTime":"2024-01-01T00:00:00.000Z","abatementDateTime":"2024-12-31T12:59:00.000Z"},"request":{"method":"PUT","url":"Condition/Condition-4"}},{"fullUrl":"https://madie.cms.gov/MedicationRequest/MedicationRequest-19","resource":{"resourceType":"MedicationRequest","id":"MedicationRequest-19","meta":{"profile":["http://hl7.org/fhir/us/qicore/StructureDefinition/qicore-medicationrequest"]},"status":"active","intent":"order","category":[{"coding":[{"system":"http://terminology.hl7.org/CodeSystem/medicationrequest-category","code":"discharge","display":"Discharge"}]}],"medicationCodeableConcept":{"coding":[{"system":"http://www.nlm.nih.gov/research/umls/rxnorm","code":"1006801","display":"clozapine 150 MG Disintegrating Oral Tablet","userSelected":true}]},"subject":{"reference":"Patient/dc48151b-0e7e-4fd0-a32e-912ada04bb29"},"authoredOn":"2025-01-01T00:00:00.000Z","requester":{"reference":"Practitioner/practitioner-123456"}},"request":{"method":"PUT","url":"MedicationRequest/MedicationRequest-19"}},{"fullUrl":"https://madie.cms.gov/MedicationRequest/MedicationRequest-20","resource":{"resourceType":"MedicationRequest","id":"MedicationRequest-20","meta":{"profile":["http://hl7.org/fhir/us/qicore/StructureDefinition/qicore-medicationrequest"]},"status":"active","intent":"order","category":[{"coding":[{"system":"http://terminology.hl7.org/CodeSystem/medicationrequest-category","code":"discharge","display":"Discharge"}]}],"medicationCodeableConcept":{"coding":[{"system":"http://www.nlm.nih.gov/research/umls/rxnorm","code":"1006801","display":"clozapine 150 MG Disintegrating Oral Tablet","userSelected":true}]},"subject":{"reference":"Patient/dc48151b-0e7e-4fd0-a32e-912ada04bb29"},"authoredOn":"2025-01-02T00:15:00.000Z","requester":{"reference":"Practitioner/practitioner-123456"}},"request":{"method":"PUT","url":"MedicationRequest/MedicationRequest-20"}},{"fullUrl":"https://madie.cms.gov/MeasureReport/cd60986d-ff06-4a72-b1a3-d8491f3fcdc8","resource":{"resourceType":"MeasureReport","id":"cd60986d-ff06-4a72-b1a3-d8491f3fcdc8","meta":{"profile":["http://hl7.org/fhir/us/cqfmeasures/StructureDefinition/test-case-cqfm"]},"contained":[{"resourceType":"Parameters","id":"00a03bda-df74-4694-9e22-ecc59a03220c-parameters","parameter":[{"name":"subject","valueString":"dc48151b-0e7e-4fd0-a32e-912ada04bb29"}]}],"extension":[{"url":"http://hl7.org/fhir/us/cqfmeasures/StructureDefinition/cqfm-inputParameters","valueReference":{"reference":"#00a03bda-df74-4694-9e22-ecc59a03220c-parameters"}},{"url":"http://hl7.org/fhir/us/cqfmeasures/StructureDefinition/cqfm-testCaseDescription","valueMarkdown":"Bipolar disorder condition ends 1 year before measurement period"}],"modifierExtension":[{"url":"http://hl7.org/fhir/us/cqfmeasures/StructureDefinition/cqfm-isTestCase","valueBoolean":true}],"status":"complete","type":"individual","measure":"https://madie.cms.gov/Measure/UseofHighRiskMedicationsintheElderlyFHIR","period":{"start":"2025-01-01","end":"2025-12-31"},"group":[{"population":[{"code":{"coding":[{"system":"http://terminology.hl7.org/CodeSystem/measure-population","code":"initial-population","display":"Initial Population"}]},"count":1},{"code":{"coding":[{"system":"http://terminology.hl7.org/CodeSystem/measure-population","code":"denominator","display":"Denominator"}]},"count":1},{"code":{"coding":[{"system":"http://terminology.hl7.org/CodeSystem/measure-population","code":"denominator-exclusion","display":"Denominator Exclusion"}]},"count":0},{"code":{"coding":[{"system":"http://terminology.hl7.org/CodeSystem/measure-population","code":"numerator","display":"Numerator"}]},"count":0}]},{"population":[{"code":{"coding":[{"system":"http://terminology.hl7.org/CodeSystem/measure-population","code":"initial-population","display":"Initial Population"}]},"count":1},{"code":{"coding":[{"system":"http://terminology.hl7.org/CodeSystem/measure-population","code":"denominator","display":"Denominator"}]},"count":1},{"code":{"coding":[{"system":"http://terminology.hl7.org/CodeSystem/measure-population","code":"denominator-exclusion","display":"Denominator Exclusion"}]},"count":0},{"code":{"coding":[{"system":"http://terminology.hl7.org/CodeSystem/measure-population","code":"numerator","display":"Numerator"}]},"count":0}]},{"population":[{"code":{"coding":[{"system":"http://terminology.hl7.org/CodeSystem/measure-population","code":"initial-population","display":"Initial Population"}]},"count":1},{"code":{"coding":[{"system":"http://terminology.hl7.org/CodeSystem/measure-population","code":"denominator","display":"Denominator"}]},"count":1},{"code":{"coding":[{"system":"http://terminology.hl7.org/CodeSystem/measure-population","code":"denominator-exclusion","display":"Denominator Exclusion"}]},"count":0},{"code":{"coding":[{"system":"http://terminology.hl7.org/CodeSystem/measure-population","code":"numerator","display":"Numerator"}]},"count":0}]}],"evaluatedResource":[{"reference":"Patient/dc48151b-0e7e-4fd0-a32e-912ada04bb29"},{"reference":"Encounter/Encounter-17"},{"reference":"Condition/Condition-4"},{"reference":"MedicationRequest/MedicationRequest-19"},{"reference":"MedicationRequest/MedicationRequest-20"}]},"request":{"method":"PUT","url":"MeasureReport/cd60986d-ff06-4a72-b1a3-d8491f3fcdc8"}}]}