{"resourceType":"Bundle","id":"tests-9fb6def2-d6e3-40ab-8c76-86d06cc31143-bundle","type":"transaction","entry":[{"fullUrl":"https://madie.cms.gov/Patient/9fb6def2-d6e3-40ab-8c76-86d06cc31143","resource":{"resourceType":"Patient","id":"9fb6def2-d6e3-40ab-8c76-86d06cc31143","meta":{"profile":["http://hl7.org/fhir/us/qicore/StructureDefinition/qicore-patient"]},"extension":[{"url":"http://hl7.org/fhir/us/core/StructureDefinition/us-core-race","extension":[{"url":"ombCategory","valueCoding":{"system":"urn:oid:2.16.840.1.113883.6.238","code":"2028-9","display":"Asian"}},{"url":"text","valueString":"Asian"}]},{"url":"http://hl7.org/fhir/us/core/StructureDefinition/us-core-ethnicity","extension":[{"url":"ombCategory","valueCoding":{"system":"urn:oid:2.16.840.1.113883.6.238","code":"2135-2","display":"Hispanic or Latino"}},{"url":"text","valueString":"Hispanic or Latino"}]}],"identifier":[{"system":"http://hospital.smarthealthit.org","value":"999999995"}],"name":[{"family":"Bertha","given":["Betty"]}],"gender":"female","birthDate":"2006-01-01"},"request":{"method":"PUT","url":"Patient/9fb6def2-d6e3-40ab-8c76-86d06cc31143"}},{"fullUrl":"https://madie.cms.gov/Procedure/Procedure-22","resource":{"resourceType":"Procedure","id":"8e77e31c-ab5b-4d16-8f99-0764a9503ea5","meta":{"profile":["http://hl7.org/fhir/us/qicore/StructureDefinition/qicore-procedure"]},"extension":[{"url":"http://hl7.org/fhir/us/qicore/StructureDefinition/qicore-recorded","valueDateTime":"2025-01-15T00:00:00.000Z"}],"status":"completed","code":{"coding":[{"system":"http://www.cms.gov/Medicare/Coding/ICD10","code":"0SR9019","display":"Replacement of Right Hip Joint with Metal Synthetic Substitute, Cemented, Open Approach"}]},"subject":{"reference":"Patient/9fb6def2-d6e3-40ab-8c76-86d06cc31143"},"performedPeriod":{"start":"2023-11-01T00:00:00.000Z","end":"2023-11-01T01:00:00.000Z"}},"request":{"method":"PUT","url":"Procedure/8e77e31c-ab5b-4d16-8f99-0764a9503ea5"}},{"fullUrl":"https://madie.cms.gov/Encounter/Encounter-22","resource":{"resourceType":"Encounter","id":"0c5067fa-b095-45ec-b320-07f3f07ad56d","meta":{"profile":["http://hl7.org/fhir/us/qicore/StructureDefinition/qicore-encounter"]},"status":"finished","class":{"system":"http://terminology.hl7.org/CodeSystem/v3-ActCode","code":"AMB","display":"ambulatory"},"type":[{"coding":[{"system":"http://snomed.info/sct","code":"281036007","display":"Follow-up consultation (procedure)"}]}],"subject":{"reference":"Patient/9fb6def2-d6e3-40ab-8c76-86d06cc31143"},"period":{"start":"2024-11-01T00:00:00.000Z","end":"2024-11-01T01:15:00.000Z"}},"request":{"method":"PUT","url":"Encounter/0c5067fa-b095-45ec-b320-07f3f07ad56d"}},{"fullUrl":"https://madie.cms.gov/Condition/Condition-22","resource":{"resourceType":"Condition","id":"83990f6d-d1e4-4c5a-a143-70bc930e7424","meta":{"profile":["http://hl7.org/fhir/us/qicore/StructureDefinition/qicore-condition"]},"clinicalStatus":{"coding":[{"system":"http://terminology.hl7.org/CodeSystem/condition-clinical","code":"resolved"}]},"category":[{"coding":[{"system":"http://terminology.hl7.org/CodeSystem/condition-category","code":"problem-list-item","display":"Problem List Item"}]}],"code":{"coding":[{"system":"http://snomed.info/sct","code":"12077001000119100","display":"Dislocation of prosthesis of left hip joint (disorder)"}]},"subject":{"reference":"Patient/9fb6def2-d6e3-40ab-8c76-86d06cc31143"},"onsetDateTime":"2023-10-31T11:59:59.000Z","abatementDateTime":"2023-10-31T11:59:59.000Z"},"request":{"method":"PUT","url":"Condition/83990f6d-d1e4-4c5a-a143-70bc930e7424"}},{"fullUrl":"https://madie.cms.gov/MeasureReport/585bf184-3305-4ad6-8efd-da72e83ab699","resource":{"resourceType":"MeasureReport","id":"585bf184-3305-4ad6-8efd-da72e83ab699","meta":{"profile":["http://hl7.org/fhir/us/cqfmeasures/StructureDefinition/test-case-cqfm"]},"contained":[{"resourceType":"Parameters","id":"c778f831-5389-470a-94dd-41e6dda36ab3-parameters","parameter":[{"name":"subject","valueString":"9fb6def2-d6e3-40ab-8c76-86d06cc31143"}]}],"extension":[{"url":"http://hl7.org/fhir/us/cqfmeasures/StructureDefinition/cqfm-inputParameters","valueReference":{"reference":"#c778f831-5389-470a-94dd-41e6dda36ab3-parameters"}},{"url":"http://hl7.org/fhir/us/cqfmeasures/StructureDefinition/cqfm-testCaseDescription","valueMarkdown":"Patient has Dx of Mechanical Complications that falls outside of the THAProcedure Interval"}],"modifierExtension":[{"url":"http://hl7.org/fhir/us/cqfmeasures/StructureDefinition/cqfm-isTestCase","valueBoolean":true}],"status":"complete","type":"individual","measure":"https://madie.cms.gov/Measure/FunctionalStatusAssessmentforTotalHipReplacementFHIR","period":{"start":"2025-01-01","end":"2025-12-31"},"group":[{"population":[{"code":{"coding":[{"system":"http://terminology.hl7.org/CodeSystem/measure-population","code":"initial-population","display":"Initial Population"}]},"count":1},{"code":{"coding":[{"system":"http://terminology.hl7.org/CodeSystem/measure-population","code":"denominator","display":"Denominator"}]},"count":1},{"code":{"coding":[{"system":"http://terminology.hl7.org/CodeSystem/measure-population","code":"denominator-exclusion","display":"Denominator Exclusion"}]},"count":0},{"code":{"coding":[{"system":"http://terminology.hl7.org/CodeSystem/measure-population","code":"numerator","display":"Numerator"}]},"count":0}]}]},"request":{"method":"PUT","url":"MeasureReport/585bf184-3305-4ad6-8efd-da72e83ab699"}}]}