{"resourceType":"Bundle","id":"tests-74305d1f-eb75-481a-baa7-94a4a41b3ffa-bundle","type":"transaction","entry":[{"fullUrl":"https://madie.cms.gov/Patient/74305d1f-eb75-481a-baa7-94a4a41b3ffa","resource":{"resourceType":"Patient","id":"74305d1f-eb75-481a-baa7-94a4a41b3ffa","meta":{"profile":["http://hl7.org/fhir/us/qicore/StructureDefinition/qicore-patient"]},"extension":[{"url":"http://hl7.org/fhir/us/core/StructureDefinition/us-core-race","extension":[{"url":"ombCategory","valueCoding":{"system":"urn:oid:2.16.840.1.113883.6.238","code":"2028-9","display":"Asian"}},{"url":"text","valueString":"Asian"}]},{"url":"http://hl7.org/fhir/us/core/StructureDefinition/us-core-ethnicity","extension":[{"url":"ombCategory","valueCoding":{"system":"urn:oid:2.16.840.1.113883.6.238","code":"2135-2","display":"Hispanic or Latino"}},{"url":"text","valueString":"Hispanic or Latino"}]}],"identifier":[{"system":"http://hospital.smarthealthit.org","value":"999999995"}],"name":[{"family":"Bertha","given":["Betty"]}],"gender":"female","birthDate":"2006-01-01"},"request":{"method":"PUT","url":"Patient/74305d1f-eb75-481a-baa7-94a4a41b3ffa"}},{"fullUrl":"https://madie.cms.gov/Procedure/Procedure-37","resource":{"resourceType":"Procedure","id":"c020daf8-b4e4-4fdf-a33c-2fbe0f94a4c0","meta":{"profile":["http://hl7.org/fhir/us/qicore/StructureDefinition/qicore-procedure"]},"extension":[{"url":"http://hl7.org/fhir/us/qicore/StructureDefinition/qicore-recorded","valueDateTime":"2023-11-01T00:00:00.000Z"}],"status":"completed","code":{"coding":[{"system":"http://www.cms.gov/Medicare/Coding/ICD10","code":"0SR9019","display":"Replacement of Right Hip Joint with Metal Synthetic Substitute, Cemented, Open Approach"}]},"subject":{"reference":"Patient/74305d1f-eb75-481a-baa7-94a4a41b3ffa"},"performedPeriod":{"start":"2023-11-01T00:00:00.000Z","end":"2023-11-01T01:00:00.000Z"}},"request":{"method":"PUT","url":"Procedure/c020daf8-b4e4-4fdf-a33c-2fbe0f94a4c0"}},{"fullUrl":"https://madie.cms.gov/Encounter/Encounter-37","resource":{"resourceType":"Encounter","id":"b5515cab-999e-47f6-8728-a88ada0eacfe","meta":{"profile":["http://hl7.org/fhir/us/qicore/StructureDefinition/qicore-encounter"]},"status":"finished","class":{"system":"http://terminology.hl7.org/CodeSystem/v3-ActCode","code":"AMB","display":"ambulatory"},"type":[{"coding":[{"system":"http://snomed.info/sct","code":"281036007","display":"Follow-up consultation (procedure)"}]}],"subject":{"reference":"Patient/74305d1f-eb75-481a-baa7-94a4a41b3ffa"},"period":{"start":"2024-11-01T00:00:00.000Z","end":"2024-11-01T01:15:00.000Z"}},"request":{"method":"PUT","url":"Encounter/b5515cab-999e-47f6-8728-a88ada0eacfe"}},{"fullUrl":"https://madie.cms.gov/Observation/Observation-37.1-1","resource":{"resourceType":"Observation","id":"03a42737-414d-4ebe-b195-812cba7e0d65","meta":{"profile":["http://hl7.org/fhir/us/qicore/StructureDefinition/qicore-observation"]},"status":"final","category":[{"coding":[{"system":"http://terminology.hl7.org/CodeSystem/observation-category","code":"survey"}]}],"code":{"coding":[{"system":"http://loinc.org","code":"82323-7","display":"Total interval score [HOOSJR]"}]},"subject":{"reference":"Patient/74305d1f-eb75-481a-baa7-94a4a41b3ffa"},"effectivePeriod":{"start":"2023-11-01T00:00:00.000Z","end":"2023-11-01T01:00:00.000Z"},"valueInteger":60},"request":{"method":"PUT","url":"Observation/03a42737-414d-4ebe-b195-812cba7e0d65"}},{"fullUrl":"https://madie.cms.gov/Observation/Observation-37.2-1","resource":{"resourceType":"Observation","id":"c91e0d1e-09ca-4368-815f-aeb6113370e9","meta":{"profile":["http://hl7.org/fhir/us/qicore/StructureDefinition/qicore-observation"]},"status":"final","category":[{"coding":[{"system":"http://terminology.hl7.org/CodeSystem/observation-category","code":"survey"}]}],"code":{"coding":[{"system":"http://loinc.org","code":"82323-7","display":"Total interval score [HOOSJR]"}]},"subject":{"reference":"Patient/74305d1f-eb75-481a-baa7-94a4a41b3ffa"},"effectivePeriod":{"start":"2024-08-27T00:00:00.000Z","end":"2024-08-27T01:00:00.000Z"},"valueInteger":60},"request":{"method":"PUT","url":"Observation/c91e0d1e-09ca-4368-815f-aeb6113370e9"}},{"fullUrl":"https://madie.cms.gov/MeasureReport/58687f90-5650-4a4f-835e-7bc001f524bb","resource":{"resourceType":"MeasureReport","id":"58687f90-5650-4a4f-835e-7bc001f524bb","meta":{"profile":["http://hl7.org/fhir/us/cqfmeasures/StructureDefinition/test-case-cqfm"]},"contained":[{"resourceType":"Parameters","id":"61c8ff39-fd99-4368-b5e3-b4b8297d4e02-parameters","parameter":[{"name":"subject","valueString":"74305d1f-eb75-481a-baa7-94a4a41b3ffa"}]}],"extension":[{"url":"http://hl7.org/fhir/us/cqfmeasures/StructureDefinition/cqfm-inputParameters","valueReference":{"reference":"#61c8ff39-fd99-4368-b5e3-b4b8297d4e02-parameters"}},{"url":"http://hl7.org/fhir/us/cqfmeasures/StructureDefinition/cqfm-testCaseDescription","valueMarkdown":"Patient w/ a THA Procedure 11/1, Initial Hip Assessment HOOSJr Same day as THA Procedure(11/1), and FollowUp Hip Assessment HOOSJr 300 days after THA Procedure (8/27)"}],"modifierExtension":[{"url":"http://hl7.org/fhir/us/cqfmeasures/StructureDefinition/cqfm-isTestCase","valueBoolean":true}],"status":"complete","type":"individual","measure":"https://madie.cms.gov/Measure/FunctionalStatusAssessmentforTotalHipReplacementFHIR","period":{"start":"2025-01-01","end":"2025-12-31"},"group":[{"population":[{"code":{"coding":[{"system":"http://terminology.hl7.org/CodeSystem/measure-population","code":"initial-population","display":"Initial Population"}]},"count":1},{"code":{"coding":[{"system":"http://terminology.hl7.org/CodeSystem/measure-population","code":"denominator","display":"Denominator"}]},"count":1},{"code":{"coding":[{"system":"http://terminology.hl7.org/CodeSystem/measure-population","code":"denominator-exclusion","display":"Denominator Exclusion"}]},"count":0},{"code":{"coding":[{"system":"http://terminology.hl7.org/CodeSystem/measure-population","code":"numerator","display":"Numerator"}]},"count":1}]}]},"request":{"method":"PUT","url":"MeasureReport/58687f90-5650-4a4f-835e-7bc001f524bb"}}]}