{"resourceType":"Bundle","id":"tests-138f84fa-891a-4a39-b804-4c3499853f3f-bundle","type":"transaction","entry":[{"fullUrl":"https://madie.cms.gov/Patient/138f84fa-891a-4a39-b804-4c3499853f3f","resource":{"resourceType":"Patient","id":"138f84fa-891a-4a39-b804-4c3499853f3f","meta":{"profile":["http://hl7.org/fhir/us/qicore/StructureDefinition/qicore-patient"]},"extension":[{"url":"http://hl7.org/fhir/us/core/StructureDefinition/us-core-race","extension":[{"url":"ombCategory","valueCoding":{"system":"urn:oid:2.16.840.1.113883.6.238","code":"2028-9","display":"Asian"}},{"url":"text","valueString":"Asian"}]},{"url":"http://hl7.org/fhir/us/core/StructureDefinition/us-core-ethnicity","extension":[{"url":"ombCategory","valueCoding":{"system":"urn:oid:2.16.840.1.113883.6.238","code":"2135-2","display":"Hispanic or Latino"}},{"url":"text","valueString":"Hispanic or Latino"}]}],"identifier":[{"system":"http://hospital.smarthealthit.org","value":"999999995"}],"name":[{"family":"Bertha","given":["Betty"]}],"gender":"female","birthDate":"1975-01-01"},"request":{"method":"PUT","url":"Patient/138f84fa-891a-4a39-b804-4c3499853f3f"}},{"fullUrl":"https://madie.cms.gov/Encounter/Encounter-17","resource":{"resourceType":"Encounter","id":"Encounter-17","meta":{"profile":["http://hl7.org/fhir/us/qicore/StructureDefinition/qicore-encounter"]},"status":"finished","class":{"system":"http://terminology.hl7.org/CodeSystem/v3-ActCode","code":"AMB","display":"ambulatory"},"type":[{"coding":[{"system":"http://snomed.info/sct","code":"185317003","display":"Telephone encounter (procedure)"}]}],"subject":{"reference":"Patient/138f84fa-891a-4a39-b804-4c3499853f3f"},"period":{"start":"2025-01-02T00:00:00.000Z","end":"2025-01-02T01:15:00.000Z"}},"request":{"method":"PUT","url":"Encounter/Encounter-17"}},{"fullUrl":"https://madie.cms.gov/Procedure/Procedure-17","resource":{"resourceType":"Procedure","id":"Procedure-17","meta":{"profile":["http://hl7.org/fhir/us/qicore/StructureDefinition/qicore-procedure"]},"extension":[{"url":"http://hl7.org/fhir/us/qicore/StructureDefinition/qicore-recorded","valueDateTime":"2025-12-31T00:00:00.000Z"}],"status":"completed","code":{"coding":[{"system":"http://snomed.info/sct","code":"169396008","display":"Radiomimetic chemotherapy (procedure)"}]},"subject":{"reference":"Patient/138f84fa-891a-4a39-b804-4c3499853f3f"},"performedPeriod":{"start":"2025-12-31T00:00:00.000Z","end":"2025-12-31T23:59:00.000Z"}},"request":{"method":"PUT","url":"Procedure/Procedure-17"}},{"fullUrl":"https://madie.cms.gov/MeasureReport/2c0b9d2c-f8c2-4e1d-8666-0340c2e90447","resource":{"resourceType":"MeasureReport","id":"2c0b9d2c-f8c2-4e1d-8666-0340c2e90447","meta":{"profile":["http://hl7.org/fhir/us/cqfmeasures/StructureDefinition/test-case-cqfm"]},"contained":[{"resourceType":"Parameters","id":"443cb0ec-92e4-410d-b70d-7517497d5f8f-parameters","parameter":[{"name":"subject","valueString":"138f84fa-891a-4a39-b804-4c3499853f3f"}]}],"extension":[{"url":"http://hl7.org/fhir/us/cqfmeasures/StructureDefinition/cqfm-inputParameters","valueReference":{"reference":"#443cb0ec-92e4-410d-b70d-7517497d5f8f-parameters"}},{"url":"http://hl7.org/fhir/us/cqfmeasures/StructureDefinition/cqfm-testCaseDescription","valueMarkdown":"Chemotherapy during the MP."}],"modifierExtension":[{"url":"http://hl7.org/fhir/us/cqfmeasures/StructureDefinition/cqfm-isTestCase","valueBoolean":true}],"status":"complete","type":"individual","measure":"https://madie.cms.gov/Measure/AppropriateDXAScansForWomenUnder65FHIR","period":{"start":"2025-01-01","end":"2025-12-31"},"group":[{"population":[{"code":{"coding":[{"system":"http://terminology.hl7.org/CodeSystem/measure-population","code":"initial-population","display":"Initial Population"}]},"count":1},{"code":{"coding":[{"system":"http://terminology.hl7.org/CodeSystem/measure-population","code":"denominator","display":"Denominator"}]},"count":1},{"code":{"coding":[{"system":"http://terminology.hl7.org/CodeSystem/measure-population","code":"denominator-exclusion","display":"Denominator Exclusion"}]},"count":1},{"code":{"coding":[{"system":"http://terminology.hl7.org/CodeSystem/measure-population","code":"numerator","display":"Numerator"}]},"count":0},{"code":{"coding":[{"system":"http://terminology.hl7.org/CodeSystem/measure-population","code":"numerator-exclusion","display":"Numerator Exclusion"}]},"count":0}]}],"evaluatedResource":[{"reference":"Patient/138f84fa-891a-4a39-b804-4c3499853f3f"},{"reference":"Encounter/Encounter-17"},{"reference":"Procedure/Procedure-17"}]},"request":{"method":"PUT","url":"MeasureReport/2c0b9d2c-f8c2-4e1d-8666-0340c2e90447"}}]}