{"resourceType":"Bundle","id":"tests-76b79115-6002-4437-97d4-e6b584d5c947-bundle","type":"transaction","entry":[{"fullUrl":"https://madie.cms.gov/Patient/76b79115-6002-4437-97d4-e6b584d5c947","resource":{"resourceType":"Patient","id":"76b79115-6002-4437-97d4-e6b584d5c947","meta":{"profile":["http://hl7.org/fhir/us/qicore/StructureDefinition/qicore-patient"]},"extension":[{"url":"http://hl7.org/fhir/us/core/StructureDefinition/us-core-race","extension":[{"url":"ombCategory","valueCoding":{"system":"urn:oid:2.16.840.1.113883.6.238","code":"2028-9","display":"Asian"}},{"url":"text","valueString":"Asian"}]},{"url":"http://hl7.org/fhir/us/core/StructureDefinition/us-core-ethnicity","extension":[{"url":"ombCategory","valueCoding":{"system":"urn:oid:2.16.840.1.113883.6.238","code":"2135-2","display":"Hispanic or Latino"}},{"url":"text","valueString":"Hispanic or Latino"}]}],"identifier":[{"system":"http://hospital.smarthealthit.org","value":"999999995"}],"name":[{"family":"Bertha","given":["Betty"]}],"gender":"female","birthDate":"1975-01-01"},"request":{"method":"PUT","url":"Patient/76b79115-6002-4437-97d4-e6b584d5c947"}},{"fullUrl":"https://madie.cms.gov/Encounter/Encounter-29","resource":{"resourceType":"Encounter","id":"Encounter-29","meta":{"profile":["http://hl7.org/fhir/us/qicore/StructureDefinition/qicore-encounter"]},"status":"finished","class":{"system":"http://terminology.hl7.org/CodeSystem/v3-ActCode","code":"AMB","display":"ambulatory"},"type":[{"coding":[{"system":"http://snomed.info/sct","code":"185317003","display":"Telephone encounter (procedure)"}]}],"subject":{"reference":"Patient/76b79115-6002-4437-97d4-e6b584d5c947"},"period":{"start":"2025-01-01T01:00:00.000Z","end":"2025-01-01T01:15:00.000Z"}},"request":{"method":"PUT","url":"Encounter/Encounter-29"}},{"fullUrl":"https://madie.cms.gov/Observation/Observation-29","resource":{"resourceType":"Observation","id":"Observation-29","meta":{"profile":["http://hl7.org/fhir/us/qicore/StructureDefinition/qicore-observation"]},"status":"final","category":[{"coding":[{"system":"http://terminology.hl7.org/CodeSystem/observation-category","code":"survey","display":"Survey"}],"text":"Survey"}],"code":{"coding":[{"system":"http://loinc.org","code":"90265-0","display":"Major osteoporotic fracture 10-year probability [Likelihood] Fracture Risk Assessment"}],"text":"ORAI"},"subject":{"reference":"Patient/76b79115-6002-4437-97d4-e6b584d5c947"},"effectiveDateTime":"2025-01-01T00:00:00.000Z","valueQuantity":{"value":8.4,"unit":"%","system":"http://unitsofmeasure.org","code":"%"}},"request":{"method":"PUT","url":"Observation/Observation-29"}},{"fullUrl":"https://madie.cms.gov/ServiceRequest/ServiceRequest-29","resource":{"resourceType":"ServiceRequest","id":"ServiceRequest-29","meta":{"profile":["http://hl7.org/fhir/us/qicore/StructureDefinition/qicore-servicerequest"]},"extension":[{"url":"http://hl7.org/fhir/StructureDefinition/request-statusReason","valueCodeableConcept":{"coding":[{"system":"http://snomed.info/sct","code":"15635006","display":"Requested by Patient"}]}}],"status":"completed","intent":"order","category":[{"coding":[{"system":"http://snomed.info/sct","code":"387713003","display":"Surgical procedure"}]}],"priority":"routine","code":{"coding":[{"system":"http://loinc.org","code":"24701-5","display":"DXA Femur [Mass/Area] Bone density"}]},"subject":{"reference":"Patient/76b79115-6002-4437-97d4-e6b584d5c947"},"encounter":{"reference":"Encounter/Encounter-29"},"occurrenceDateTime":"2025-01-03","authoredOn":"2025-01-03","performerType":{"coding":[{"system":"http://snomed.info/sct","code":"405279007","display":"Attending physician (occupation)"}]},"reasonCode":[{"coding":[{"system":"http://snomed.info/sct","code":"123614006","display":"Partial Cataract (disorder)"}]}]},"request":{"method":"PUT","url":"ServiceRequest/ServiceRequest-29"}},{"fullUrl":"https://madie.cms.gov/MeasureReport/0e92ef83-4382-4361-bf76-ff05319cebf6","resource":{"resourceType":"MeasureReport","id":"0e92ef83-4382-4361-bf76-ff05319cebf6","meta":{"profile":["http://hl7.org/fhir/us/cqfmeasures/StructureDefinition/test-case-cqfm"]},"contained":[{"resourceType":"Parameters","id":"be0665ea-b03c-4fa9-a0fe-5e9cb2cc46b7-parameters","parameter":[{"name":"subject","valueString":"76b79115-6002-4437-97d4-e6b584d5c947"}]}],"extension":[{"url":"http://hl7.org/fhir/us/cqfmeasures/StructureDefinition/cqfm-inputParameters","valueReference":{"reference":"#be0665ea-b03c-4fa9-a0fe-5e9cb2cc46b7-parameters"}},{"url":"http://hl7.org/fhir/us/cqfmeasures/StructureDefinition/cqfm-testCaseDescription","valueMarkdown":"FRAX assessment before DXA order scan"}],"modifierExtension":[{"url":"http://hl7.org/fhir/us/cqfmeasures/StructureDefinition/cqfm-isTestCase","valueBoolean":true}],"status":"complete","type":"individual","measure":"https://madie.cms.gov/Measure/AppropriateDXAScansForWomenUnder65FHIR","period":{"start":"2025-01-01","end":"2025-12-31"},"group":[{"population":[{"code":{"coding":[{"system":"http://terminology.hl7.org/CodeSystem/measure-population","code":"initial-population","display":"Initial Population"}]},"count":1},{"code":{"coding":[{"system":"http://terminology.hl7.org/CodeSystem/measure-population","code":"denominator","display":"Denominator"}]},"count":1},{"code":{"coding":[{"system":"http://terminology.hl7.org/CodeSystem/measure-population","code":"denominator-exclusion","display":"Denominator Exclusion"}]},"count":0},{"code":{"coding":[{"system":"http://terminology.hl7.org/CodeSystem/measure-population","code":"numerator","display":"Numerator"}]},"count":1},{"code":{"coding":[{"system":"http://terminology.hl7.org/CodeSystem/measure-population","code":"numerator-exclusion","display":"Numerator Exclusion"}]},"count":1}]}],"evaluatedResource":[{"reference":"Patient/76b79115-6002-4437-97d4-e6b584d5c947"},{"reference":"Encounter/Encounter-29"},{"reference":"Observation/Observation-29"},{"reference":"ServiceRequest/ServiceRequest-29"}]},"request":{"method":"PUT","url":"MeasureReport/0e92ef83-4382-4361-bf76-ff05319cebf6"}}]}