{"resourceType":"Bundle","id":"tests-fe77c3ba-0a2f-4d68-bea7-c713a8cb4d07-bundle","type":"transaction","entry":[{"fullUrl":"https://madie.cms.gov/Patient/fe77c3ba-0a2f-4d68-bea7-c713a8cb4d07","resource":{"resourceType":"Patient","id":"fe77c3ba-0a2f-4d68-bea7-c713a8cb4d07","meta":{"profile":["http://hl7.org/fhir/us/qicore/StructureDefinition/qicore-patient"]},"extension":[{"url":"http://hl7.org/fhir/us/core/StructureDefinition/us-core-race","extension":[{"url":"ombCategory","valueCoding":{"system":"urn:oid:2.16.840.1.113883.6.238","code":"2028-9","display":"Asian"}},{"url":"text","valueString":"Asian"}]},{"url":"http://hl7.org/fhir/us/core/StructureDefinition/us-core-ethnicity","extension":[{"url":"ombCategory","valueCoding":{"system":"urn:oid:2.16.840.1.113883.6.238","code":"2135-2","display":"Hispanic or Latino"}},{"url":"text","valueString":"Hispanic or Latino"}]}],"identifier":[{"system":"http://hospital.smarthealthit.org","value":"999999995"}],"name":[{"family":"Bertha","given":["Betty"]}],"gender":"female","birthDate":"1975-01-01"},"request":{"method":"PUT","url":"Patient/fe77c3ba-0a2f-4d68-bea7-c713a8cb4d07"}},{"fullUrl":"https://madie.cms.gov/Encounter/Encounter-23","resource":{"resourceType":"Encounter","id":"Encounter-23","meta":{"profile":["http://hl7.org/fhir/us/qicore/StructureDefinition/qicore-encounter"]},"status":"finished","class":{"system":"http://terminology.hl7.org/CodeSystem/v3-ActCode","code":"AMB","display":"ambulatory"},"type":[{"coding":[{"system":"http://snomed.info/sct","code":"185317003","display":"Telephone encounter (procedure)"}]}],"subject":{"reference":"Patient/fe77c3ba-0a2f-4d68-bea7-c713a8cb4d07"},"period":{"start":"2025-01-02T00:00:00.000Z","end":"2025-01-02T01:15:00.000Z"}},"request":{"method":"PUT","url":"Encounter/Encounter-23"}},{"fullUrl":"https://madie.cms.gov/Procedure/Procedure-23","resource":{"resourceType":"Procedure","id":"Procedure-23","meta":{"profile":["http://hl7.org/fhir/us/qicore/StructureDefinition/qicore-procedure"]},"extension":[{"url":"http://hl7.org/fhir/us/qicore/StructureDefinition/qicore-recorded","valueDateTime":"2025-12-30T00:00:00.000Z"}],"status":"completed","code":{"coding":[{"system":"http://snomed.info/sct","code":"713285002","display":"Prophylactic oophorectomy (procedure)"}]},"subject":{"reference":"Patient/fe77c3ba-0a2f-4d68-bea7-c713a8cb4d07"},"performedPeriod":{"start":"2025-12-30T00:00:00.000Z","end":"2025-12-30T23:59:00.000Z"},"bodySite":[{"coding":[{"system":"http://snomed.info/sct","version":"2021.09.21AA","code":"7771000","display":"Left (qualifier value)"}]}]},"request":{"method":"PUT","url":"Procedure/Procedure-23"}},{"fullUrl":"https://madie.cms.gov/Procedure/Procedure-24","resource":{"resourceType":"Procedure","id":"Procedure-24","meta":{"profile":["http://hl7.org/fhir/us/qicore/StructureDefinition/qicore-procedure"]},"extension":[{"url":"http://hl7.org/fhir/us/qicore/StructureDefinition/qicore-recorded","valueDateTime":"2025-12-30T00:00:00.000Z"}],"status":"completed","code":{"coding":[{"system":"http://snomed.info/sct","code":"713285002","display":"Prophylactic oophorectomy (procedure)"}]},"subject":{"reference":"Patient/fe77c3ba-0a2f-4d68-bea7-c713a8cb4d07"},"performedPeriod":{"start":"2025-12-30T00:00:00.000Z","end":"2025-12-30T23:59:00.000Z"},"bodySite":[{"coding":[{"system":"http://snomed.info/sct","version":"2021.09.21AA","code":"24028007","display":"Right (qualifier value)"}]}]},"request":{"method":"PUT","url":"Procedure/Procedure-24"}},{"fullUrl":"https://madie.cms.gov/MeasureReport/0b4d8606-282e-488e-86c1-dd4db614b3a4","resource":{"resourceType":"MeasureReport","id":"0b4d8606-282e-488e-86c1-dd4db614b3a4","meta":{"profile":["http://hl7.org/fhir/us/cqfmeasures/StructureDefinition/test-case-cqfm"]},"contained":[{"resourceType":"Parameters","id":"58e5414d-5421-461d-905d-55e9db9c0904-parameters","parameter":[{"name":"subject","valueString":"fe77c3ba-0a2f-4d68-bea7-c713a8cb4d07"}]}],"extension":[{"url":"http://hl7.org/fhir/us/cqfmeasures/StructureDefinition/cqfm-inputParameters","valueReference":{"reference":"#58e5414d-5421-461d-905d-55e9db9c0904-parameters"}},{"url":"http://hl7.org/fhir/us/cqfmeasures/StructureDefinition/cqfm-testCaseDescription","valueMarkdown":"Unilateral Oophorectomy procedure in patients history during MP"}],"modifierExtension":[{"url":"http://hl7.org/fhir/us/cqfmeasures/StructureDefinition/cqfm-isTestCase","valueBoolean":true}],"status":"complete","type":"individual","measure":"https://madie.cms.gov/Measure/AppropriateDXAScansForWomenUnder65FHIR","period":{"start":"2025-01-01","end":"2025-12-31"},"group":[{"population":[{"code":{"coding":[{"system":"http://terminology.hl7.org/CodeSystem/measure-population","code":"initial-population","display":"Initial Population"}]},"count":1},{"code":{"coding":[{"system":"http://terminology.hl7.org/CodeSystem/measure-population","code":"denominator","display":"Denominator"}]},"count":1},{"code":{"coding":[{"system":"http://terminology.hl7.org/CodeSystem/measure-population","code":"denominator-exclusion","display":"Denominator Exclusion"}]},"count":1},{"code":{"coding":[{"system":"http://terminology.hl7.org/CodeSystem/measure-population","code":"numerator","display":"Numerator"}]},"count":0},{"code":{"coding":[{"system":"http://terminology.hl7.org/CodeSystem/measure-population","code":"numerator-exclusion","display":"Numerator Exclusion"}]},"count":0}]}],"evaluatedResource":[{"reference":"Patient/fe77c3ba-0a2f-4d68-bea7-c713a8cb4d07"},{"reference":"Encounter/Encounter-23"},{"reference":"Procedure/Procedure-23"},{"reference":"Procedure/Procedure-24"}]},"request":{"method":"PUT","url":"MeasureReport/0b4d8606-282e-488e-86c1-dd4db614b3a4"}}]}