{"resourceType":"Bundle","id":"tests-bf0f8968-c2c0-4416-88db-11ea3e3da968-bundle","type":"transaction","entry":[{"fullUrl":"https://madie.cms.gov/Patient/bf0f8968-c2c0-4416-88db-11ea3e3da968","resource":{"resourceType":"Patient","id":"bf0f8968-c2c0-4416-88db-11ea3e3da968","meta":{"profile":["http://hl7.org/fhir/us/qicore/StructureDefinition/qicore-patient"]},"extension":[{"url":"http://hl7.org/fhir/us/core/StructureDefinition/us-core-race","extension":[{"url":"ombCategory","valueCoding":{"system":"urn:oid:2.16.840.1.113883.6.238","code":"1002-5","display":"American Indian or Alaska Native"}},{"url":"text","valueString":"American Indian or Alaska Native"}]},{"url":"http://hl7.org/fhir/us/core/StructureDefinition/us-core-ethnicity","extension":[{"url":"ombCategory","valueCoding":{"system":"urn:oid:2.16.840.1.113883.6.238","code":"2135-2","display":"Hispanic or Latino"}},{"url":"text","valueString":"Hispanic or Latino"}]}],"identifier":[{"type":{"coding":[{"system":"http://terminology.hl7.org/CodeSystem/v2-0203","code":"MR"}]},"system":"https://bonnie-fhir.healthit.gov/","value":"74612635468413203"}],"active":true,"name":[{"use":"usual","family":"NUMERPass","given":["USSMultipleIn1DayImprovement10"]}],"gender":"male","birthDate":"1948-04-28"},"request":{"method":"PUT","url":"Patient/bf0f8968-c2c0-4416-88db-11ea3e3da968"}},{"fullUrl":"https://madie.cms.gov/Observation/601b8e7bde532200000b7da0","resource":{"resourceType":"Observation","id":"c2b3cc92-b4b1-4650-8018-d6ca5dce5bab","meta":{"profile":["http://hl7.org/fhir/us/qicore/StructureDefinition/qicore-observation"]},"status":"final","category":[{"coding":[{"system":"http://terminology.hl7.org/CodeSystem/observation-category","code":"survey","display":"Survey"}]}],"code":{"coding":[{"system":"http://loinc.org","version":"2.76","code":"80976-4"}]},"subject":{"reference":"Patient/bf0f8968-c2c0-4416-88db-11ea3e3da968"},"effectivePeriod":{"start":"2025-01-06T10:00:00.000+00:00"},"valueInteger":10},"request":{"method":"PUT","url":"Observation/c2b3cc92-b4b1-4650-8018-d6ca5dce5bab"}},{"fullUrl":"https://madie.cms.gov/Observation/601b8ebfde532200000b7e0a","resource":{"resourceType":"Observation","id":"c09974c3-ce45-480b-91d5-e9143e07688a","meta":{"profile":["http://hl7.org/fhir/us/qicore/StructureDefinition/qicore-observation"]},"status":"final","category":[{"coding":[{"system":"http://terminology.hl7.org/CodeSystem/observation-category","code":"survey","display":"Survey"}]}],"code":{"coding":[{"system":"http://loinc.org","version":"2.76","code":"80976-4"}]},"subject":{"reference":"Patient/bf0f8968-c2c0-4416-88db-11ea3e3da968"},"effectivePeriod":{"start":"2025-01-06T11:30:00.000+00:00"},"valueInteger":12},"request":{"method":"PUT","url":"Observation/c09974c3-ce45-480b-91d5-e9143e07688a"}},{"fullUrl":"https://madie.cms.gov/Observation/6022ff814c14e40000c0f8f3","resource":{"resourceType":"Observation","id":"ba5dfafe-e361-47a6-b8ad-5240d16161f1","meta":{"profile":["http://hl7.org/fhir/us/qicore/StructureDefinition/qicore-observation"]},"status":"final","category":[{"coding":[{"system":"http://terminology.hl7.org/CodeSystem/observation-category","code":"survey","display":"Survey"}]}],"code":{"coding":[{"system":"http://loinc.org","version":"2.76","code":"80976-4"}]},"subject":{"reference":"Patient/bf0f8968-c2c0-4416-88db-11ea3e3da968"},"effectivePeriod":{"start":"2025-01-06T08:00:00.000+00:00"},"valueInteger":20},"request":{"method":"PUT","url":"Observation/ba5dfafe-e361-47a6-b8ad-5240d16161f1"}},{"fullUrl":"https://madie.cms.gov/Observation/6022ffa84c14e40000c0f95d","resource":{"resourceType":"Observation","id":"4a3c8b4b-b209-4673-9c16-3dfc9b78c760","meta":{"profile":["http://hl7.org/fhir/us/qicore/StructureDefinition/qicore-observation"]},"status":"final","category":[{"coding":[{"system":"http://terminology.hl7.org/CodeSystem/observation-category","code":"survey","display":"Survey"}]}],"code":{"coding":[{"system":"http://loinc.org","version":"2.76","code":"80976-4"}]},"subject":{"reference":"Patient/bf0f8968-c2c0-4416-88db-11ea3e3da968"},"effectivePeriod":{"start":"2025-10-06T08:00:00.000+00:00"},"valueInteger":10},"request":{"method":"PUT","url":"Observation/4a3c8b4b-b209-4673-9c16-3dfc9b78c760"}},{"fullUrl":"https://madie.cms.gov/Condition/6022ff184c14e40000c0f876","resource":{"resourceType":"Condition","id":"870e35e7-8450-4b2f-ab04-af72d732a5a9","meta":{"profile":["http://hl7.org/fhir/us/qicore/StructureDefinition/qicore-condition"]},"clinicalStatus":{"coding":[{"system":"http://terminology.hl7.org/CodeSystem/condition-clinical","code":"active"}]},"verificationStatus":{"coding":[{"system":"http://terminology.hl7.org/CodeSystem/condition-ver-status","code":"confirmed"}]},"category":[{"coding":[{"system":"http://terminology.hl7.org/CodeSystem/condition-category","code":"problem-list-item","display":"Problem List Item"}]}],"code":{"coding":[{"system":"http://hl7.org/fhir/sid/icd-10-cm","version":"2024","code":"N40.1"}]},"subject":{"reference":"Patient/bf0f8968-c2c0-4416-88db-11ea3e3da968"},"onsetPeriod":{"start":"2024-12-31T08:00:00.000+00:00"}},"request":{"method":"PUT","url":"Condition/870e35e7-8450-4b2f-ab04-af72d732a5a9"}},{"fullUrl":"https://madie.cms.gov/Encounter/5ca621f4b8484628b8ddb6d9","resource":{"resourceType":"Encounter","id":"58d88eb0-98d3-4dbb-81e4-fa22457d3a7e","meta":{"profile":["http://hl7.org/fhir/us/qicore/StructureDefinition/qicore-encounter"]},"status":"finished","class":{"system":"http://terminology.hl7.org/CodeSystem/v3-ActCode","code":"AMB","display":"ambulatory"},"type":[{"coding":[{"system":"http://www.ama-assn.org/go/cpt","version":"2024","code":"99214"}]}],"subject":{"reference":"Patient/bf0f8968-c2c0-4416-88db-11ea3e3da968"},"period":{"start":"2025-04-06T08:00:00+00:00","end":"2025-04-06T08:15:00+00:00"}},"request":{"method":"PUT","url":"Encounter/58d88eb0-98d3-4dbb-81e4-fa22457d3a7e"}},{"fullUrl":"https://madie.cms.gov/MeasureReport/166f4971-4cb8-4289-a7e2-228ac4aafdd9","resource":{"resourceType":"MeasureReport","id":"166f4971-4cb8-4289-a7e2-228ac4aafdd9","meta":{"profile":["http://hl7.org/fhir/us/cqfmeasures/StructureDefinition/test-case-cqfm"]},"contained":[{"resourceType":"Parameters","id":"276ec6e0-6f51-48f4-ad60-b889a58958ca-parameters","parameter":[{"name":"subject","valueString":"bf0f8968-c2c0-4416-88db-11ea3e3da968"}]}],"extension":[{"url":"http://hl7.org/fhir/us/cqfmeasures/StructureDefinition/cqfm-inputParameters","valueReference":{"reference":"#276ec6e0-6f51-48f4-ad60-b889a58958ca-parameters"}},{"url":"http://hl7.org/fhir/us/cqfmeasures/StructureDefinition/cqfm-testCaseDescription","valueMarkdown":"Male Pt with BPH Dx, Office Visit and multiple urinary assessments occuring on same day along with one occuring six months later which qualifies for numerator. "}],"modifierExtension":[{"url":"http://hl7.org/fhir/us/cqfmeasures/StructureDefinition/cqfm-isTestCase","valueBoolean":true}],"status":"complete","type":"individual","measure":"https://madie.cms.gov/Measure/UrinarySymptomScoreChangeAfterBenignProstaticHyperplasiaFHIR","period":{"start":"2025-01-01","end":"2025-12-31"},"group":[{"population":[{"code":{"coding":[{"system":"http://terminology.hl7.org/CodeSystem/measure-population","code":"initial-population","display":"Initial Population"}]},"count":1},{"code":{"coding":[{"system":"http://terminology.hl7.org/CodeSystem/measure-population","code":"denominator","display":"Denominator"}]},"count":1},{"code":{"coding":[{"system":"http://terminology.hl7.org/CodeSystem/measure-population","code":"denominator-exclusion","display":"Denominator Exclusion"}]},"count":0},{"code":{"coding":[{"system":"http://terminology.hl7.org/CodeSystem/measure-population","code":"numerator","display":"Numerator"}]},"count":1}]}]},"request":{"method":"PUT","url":"MeasureReport/166f4971-4cb8-4289-a7e2-228ac4aafdd9"}}]}