{
  "resourceType": "Bundle",
  "id": "64270cbea7ffa60ebe02488f",
  "type": "transaction",
  "entry": [ {
    "fullUrl": "https://madie.cms.gov/Patient/295c64bb-b461-45d0-849c-dde488d2ef2d",
    "resource": {
      "resourceType": "Patient",
      "id": "295c64bb-b461-45d0-849c-dde488d2ef2d",
      "meta": {
        "profile": [ "http://hl7.org/fhir/us/qicore/StructureDefinition/qicore-patient" ]
      },
      "extension": [ {
        "url": "http://hl7.org/fhir/us/core/StructureDefinition/us-core-race",
        "extension": [ {
          "url": "ombCategory",
          "valueCoding": {
            "system": "urn:oid:2.16.840.1.113883.6.238",
            "code": "2028-9",
            "display": "Asian",
            "userSelected": true
          }
        }, {
          "url": "text",
          "valueString": "Asian"
        } ]
      }, {
        "url": "http://hl7.org/fhir/us/core/StructureDefinition/us-core-ethnicity",
        "extension": [ {
          "url": "ombCategory",
          "valueCoding": {
            "system": "urn:oid:2.16.840.1.113883.6.238",
            "code": "2135-2",
            "display": "Hispanic or Latino",
            "userSelected": true
          }
        }, {
          "url": "text",
          "valueString": "Hispanic or Latino"
        } ]
      } ],
      "identifier": [ {
        "type": {
          "coding": [ {
            "system": "http://terminology.hl7.org/CodeSystem/v2-0203",
            "code": "MR"
          } ]
        },
        "system": "https://goodhealth.healthit.gov/",
        "value": "64270cbea7ffa60ebe02488f"
      } ],
      "name": [ {
        "family": "IPFail",
        "given": [ "DementiaDx1MinAfterEncEdge" ]
      } ],
      "gender": "male",
      "birthDate": "1968-03-02"
    },
    "request": {
      "method": "POST",
      "url": "Patient/295c64bb-b461-45d0-849c-dde488d2ef2d"
    }
  }, {
    "fullUrl": "https://madie.cms.gov/Condition/2300003203",
    "resource": {
      "resourceType": "Condition",
      "id": "2300003203",
      "meta": {
        "profile": [ "http://hl7.org/fhir/us/qicore/StructureDefinition/qicore-condition" ]
      },
      "clinicalStatus": {
        "coding": [ {
          "system": "http://terminology.hl7.org/CodeSystem/condition-clinical",
          "code": "active",
          "display": "Active",
          "userSelected": true
        } ]
      },
      "verificationStatus": {
        "coding": [ {
          "system": "http://terminology.hl7.org/CodeSystem/condition-ver-status",
          "code": "confirmed",
          "display": "Confirmed",
          "userSelected": true
        } ]
      },
      "category": [ {
        "coding": [ {
          "system": "http://terminology.hl7.org/CodeSystem/condition-category",
          "code": "encounter-diagnosis",
          "display": "Encounter Diagnosis",
          "userSelected": true
        } ]
      } ],
      "code": {
        "coding": [ {
          "system": "http://snomed.info/sct",
          "version": "http://snomed.info/sct/731000124108/version/20230301",
          "code": "191463004",
          "display": "Uncomplicated arteriosclerotic dementia (disorder)"
        } ]
      },
      "subject": {
        "reference": "Patient/295c64bb-b461-45d0-849c-dde488d2ef2d"
      },
      "onsetPeriod": {
        "start": "2025-08-16T08:36:00.000+00:00"
      }
    },
    "request": {
      "method": "POST",
      "url": "Condition/2300003203"
    }
  }, {
    "fullUrl": "https://madie.cms.gov/Encounter/2300003204",
    "resource": {
      "resourceType": "Encounter",
      "id": "2300003204",
      "meta": {
        "profile": [ "http://hl7.org/fhir/us/qicore/StructureDefinition/qicore-encounter" ]
      },
      "status": "finished",
      "class": {
        "system": "http://terminology.hl7.org/CodeSystem/v3-ActCode",
        "code": "AMB",
        "display": "ambulatory",
        "userSelected": true
      },
      "type": [ {
        "coding": [ {
          "system": "http://www.ama-assn.org/go/cpt",
          "version": "2023",
          "code": "99212",
          "userSelected": true
        } ]
      } ],
      "subject": {
        "reference": "Patient/295c64bb-b461-45d0-849c-dde488d2ef2d"
      },
      "period": {
        "start": "2025-03-16T08:00:00.000+00:00",
        "end": "2025-03-16T08:35:00.000+00:00"
      }
    },
    "request": {
      "method": "POST",
      "url": "Encounter/2300003204"
    }
  }, {
    "fullUrl": "https://madie.cms.gov/Encounter/23000032017",
    "resource": {
      "resourceType": "Encounter",
      "id": "23000032017",
      "meta": {
        "profile": [ "http://hl7.org/fhir/us/qicore/StructureDefinition/qicore-encounter" ]
      },
      "status": "finished",
      "class": {
        "system": "http://terminology.hl7.org/CodeSystem/v3-ActCode",
        "code": "AMB",
        "display": "ambulatory",
        "userSelected": true
      },
      "type": [ {
        "coding": [ {
          "system": "http://snomed.info/sct",
          "version": "http://snomed.info/sct/731000124108/version/20230301",
          "code": "185462000",
          "display": "Home visit request by relative (procedure)"
        } ]
      } ],
      "subject": {
        "reference": "Patient/295c64bb-b461-45d0-849c-dde488d2ef2d"
      },
      "period": {
        "start": "2025-08-15T08:00:00.000+00:00",
        "end": "2025-08-15T08:35:00.000+00:00"
      }
    },
    "request": {
      "method": "POST",
      "url": "Encounter/23000032017"
    }
  }, {
    "fullUrl": "https://madie.cms.gov/MeasureReport/f1441171-38a0-43ef-b4da-5f1793d304ec",
    "resource": {
      "resourceType": "MeasureReport",
      "id": "f1441171-38a0-43ef-b4da-5f1793d304ec",
      "meta": {
        "profile": [ "http://hl7.org/fhir/us/cqfmeasures/StructureDefinition/test-case-cqfm" ]
      },
      "contained": [ {
        "resourceType": "Parameters",
        "id": "54bcc646-f893-4777-b2d6-054d5fb9e538-parameters",
        "parameter": [ {
          "name": "subject",
          "valueString": "295c64bb-b461-45d0-849c-dde488d2ef2d"
        } ]
      } ],
      "extension": [ {
        "url": "http://hl7.org/fhir/us/cqfmeasures/StructureDefinition/cqfm-inputParameters",
        "valueReference": {
          "reference": "#54bcc646-f893-4777-b2d6-054d5fb9e538-parameters"
        }
      }, {
        "url": "http://hl7.org/fhir/us/cqfmeasures/StructureDefinition/cqfm-testCaseDescription",
        "valueMarkdown": "Patient has qualifying encounters and a demential diagnosis which does not overlap encounter period by starting 1 day after end of encounter"
      } ],
      "modifierExtension": [ {
        "url": "http://hl7.org/fhir/us/cqfmeasures/StructureDefinition/cqfm-isTestCase",
        "valueBoolean": true
      } ],
      "status": "complete",
      "type": "individual",
      "measure": "https://madie.cms.gov/Measure/DementiaCognitiveAssessmentFHIR",
      "period": {
        "start": "2025-01-01",
        "end": "2025-12-31"
      },
      "group": [ {
        "population": [ {
          "code": {
            "coding": [ {
              "system": "http://terminology.hl7.org/CodeSystem/measure-population",
              "code": "initial-population",
              "display": "Initial Population"
            } ]
          },
          "count": 0
        }, {
          "code": {
            "coding": [ {
              "system": "http://terminology.hl7.org/CodeSystem/measure-population",
              "code": "denominator",
              "display": "Denominator"
            } ]
          },
          "count": 0
        }, {
          "code": {
            "coding": [ {
              "system": "http://terminology.hl7.org/CodeSystem/measure-population",
              "code": "numerator",
              "display": "Numerator"
            } ]
          },
          "count": 0
        }, {
          "code": {
            "coding": [ {
              "system": "http://terminology.hl7.org/CodeSystem/measure-population",
              "code": "denominator-exception",
              "display": "Denominator Exception"
            } ]
          },
          "count": 0
        } ]
      } ],
      "evaluatedResource": [ {
        "reference": "Patient/295c64bb-b461-45d0-849c-dde488d2ef2d"
      }, {
        "reference": "Condition/2300003203"
      }, {
        "reference": "Encounter/2300003204"
      }, {
        "reference": "Encounter/23000032017"
      } ]
    },
    "request": {
      "method": "POST",
      "url": "MeasureReport/f1441171-38a0-43ef-b4da-5f1793d304ec"
    }
  } ]
}