{"resourceType":"Bundle","id":"tests-e7c3ce5f-06e7-437f-a611-3df5d324eaf9-bundle","type":"transaction","entry":[{"fullUrl":"https://madie.cms.gov/Patient/e7c3ce5f-06e7-437f-a611-3df5d324eaf9","resource":{"resourceType":"Patient","id":"e7c3ce5f-06e7-437f-a611-3df5d324eaf9","meta":{"profile":["http://hl7.org/fhir/us/qicore/StructureDefinition/qicore-patient"]},"text":{"status":"generated","div":"<div xmlns=\"http://www.w3.org/1999/xhtml\"><div class=\"hapiHeaderText\">GT2after_relevantPeriod_startonly <b>TEMPFAIL </b></div><table class=\"hapiPropertyTable\"><tbody><tr><td>Identifier</td><td>cc92ca2d683777c37369f3543d9693f391ac5069002d71debd1939cd48bb2d8a</td></tr><tr><td>Date of birth</td><td><span>15 June 1956</span></td></tr></tbody></table></div>"},"extension":[{"url":"http://hl7.org/fhir/us/core/StructureDefinition/us-core-race","extension":[{"url":"ombCategory","valueCoding":{"system":"urn:oid:2.16.840.1.113883.6.238","code":"1002-5","display":"American Indian or Alaska Native","userSelected":true}},{"url":"text","valueString":"American Indian or Alaska Native"}]},{"url":"http://hl7.org/fhir/us/core/StructureDefinition/us-core-ethnicity","extension":[{"url":"ombCategory","valueCoding":{"system":"urn:oid:2.16.840.1.113883.6.238","code":"2186-5","display":"Not Hispanic or Latino","userSelected":true}},{"url":"text","valueString":"Not Hispanic or Latino"}]}],"identifier":[{"type":{"coding":[{"system":"http://terminology.hl7.org/CodeSystem/v2-0203","code":"MR"}]},"system":"https://bonnie-fhir.healthit.gov/","value":"63ec0968ccb3770120fe9dc6"}],"active":true,"name":[{"use":"usual","family":"TemperaturePass","given":["2HrsAfterStartOfEncounter"]}],"gender":"male","birthDate":"1956-06-15"},"request":{"method":"PUT","url":"Patient/e7c3ce5f-06e7-437f-a611-3df5d324eaf9"}},{"fullUrl":"https://madie.cms.gov/Encounter/5e0652969350f90000fe280e","resource":{"resourceType":"Encounter","id":"5e0652969350f90000fe280e","meta":{"profile":["http://hl7.org/fhir/us/qicore/StructureDefinition/qicore-encounter"]},"status":"finished","class":{"system":"http://terminology.hl7.org/CodeSystem/v3-ActCode","code":"NONAC","display":"Nonacute","userSelected":true},"type":[{"coding":[{"system":"http://snomed.info/sct","code":"183452005","display":"Emergency hospital admission (procedure)"}]}],"subject":{"reference":"Patient/e7c3ce5f-06e7-437f-a611-3df5d324eaf9"},"period":{"start":"2025-07-01T08:00:00.000+00:00","end":"2025-07-02T08:15:00.000+00:00"}},"request":{"method":"PUT","url":"Encounter/5e0652969350f90000fe280e"}},{"fullUrl":"https://madie.cms.gov/Coverage/5f996a36b977ef0000c0300c","resource":{"resourceType":"Coverage","id":"5f996a36b977ef0000c0300c","meta":{"profile":["http://hl7.org/fhir/us/qicore/StructureDefinition/qicore-coverage"]},"status":"active","type":{"coding":[{"system":"https://nahdo.org/sopt","version":"1.0.1","code":"1","display":"Medicare payer","userSelected":true}]},"beneficiary":{"reference":"Patient/e7c3ce5f-06e7-437f-a611-3df5d324eaf9"},"period":{"start":"2025-01-28T08:00:00.000+00:00","end":"2025-12-31T08:15:00.000+00:00"},"payor":[{"reference":"Organization/Org-123456"}]},"request":{"method":"PUT","url":"Coverage/5f996a36b977ef0000c0300c"}},{"fullUrl":"https://madie.cms.gov/Observation/5b7c5683b84846299c81a5e1","resource":{"resourceType":"Observation","id":"5b7c5683b84846299c81a5e1","meta":{"profile":["http://hl7.org/fhir/StructureDefinition/bodytemp"]},"status":"corrected","category":[{"coding":[{"system":"http://terminology.hl7.org/CodeSystem/observation-category","code":"vital-signs","display":"Vital Signs","userSelected":true}]}],"code":{"coding":[{"system":"http://loinc.org","code":"8310-5","display":"Body temperature"}]},"subject":{"reference":"Patient/e7c3ce5f-06e7-437f-a611-3df5d324eaf9"},"effectiveDateTime":"2025-07-01T10:00:00.000+00:00","valueQuantity":{"value":98.6,"unit":"[degF]","system":"http://unitsofmeasure.org","code":"[degF]"}},"request":{"method":"PUT","url":"Observation/5b7c5683b84846299c81a5e1"}},{"fullUrl":"https://madie.cms.gov/Organization/123456","resource":{"resourceType":"Organization","id":"Org-123456","meta":{"profile":["http://hl7.org/fhir/us/qicore/StructureDefinition/qicore-organization"]},"identifier":[{"use":"temp","system":"urn:oid:2.16.840.1.113883.4.4","value":"21-3259825"}],"active":true,"type":[{"coding":[{"system":"http://terminology.hl7.org/CodeSystem/organization-type","code":"pay","display":"Payer"}]}],"name":"Blue Cross Blue Shield of Texas","telecom":[{"system":"phone","value":"(+1) 972-766-6900"}],"address":[{"use":"billing","type":"postal","line":["P.O. Box 660044"],"city":"Dallas","state":"TX","postalCode":"75266-0044","country":"USA"}]},"request":{"method":"PUT","url":"Organization/Org-123456"}},{"fullUrl":"https://madie.cms.gov/Practitioner/practitioner-123456","resource":{"resourceType":"Practitioner","id":"practitioner-123456","meta":{"profile":["http://hl7.org/fhir/us/qicore/StructureDefinition/qicore-practitioner"]},"identifier":[{"system":"http://hl7.org/fhir/sid/us-npi","value":"123456"}],"name":[{"family":"Evil","prefix":["Dr"]}]},"request":{"method":"PUT","url":"Practitioner/practitioner-123456"}},{"fullUrl":"https://madie.cms.gov/MeasureReport/1170ea3d-385b-461c-b76f-3e6ca7eb325e","resource":{"resourceType":"MeasureReport","id":"1170ea3d-385b-461c-b76f-3e6ca7eb325e","meta":{"profile":["http://hl7.org/fhir/us/cqfmeasures/StructureDefinition/test-case-cqfm"]},"contained":[{"resourceType":"Parameters","id":"39f69c85-ddbe-49ff-b9f5-a9428437bb8c-parameters","parameter":[{"name":"subject","valueString":"e7c3ce5f-06e7-437f-a611-3df5d324eaf9"}]}],"extension":[{"url":"http://hl7.org/fhir/us/cqfmeasures/StructureDefinition/cqfm-inputParameters","valueReference":{"reference":"#39f69c85-ddbe-49ff-b9f5-a9428437bb8c-parameters"}},{"url":"http://hl7.org/fhir/us/cqfmeasures/StructureDefinition/cqfm-testCaseDescription","valueMarkdown":"Enc first day of MP (7/1), has Medicare, Patient has temperature taken 2hrs after start of encounter"}],"modifierExtension":[{"url":"http://hl7.org/fhir/us/cqfmeasures/StructureDefinition/cqfm-isTestCase","valueBoolean":true}],"status":"complete","type":"individual","measure":"https://madie.cms.gov/Measure/HybridHospitalWideReadmissionFHIR","period":{"start":"2025-07-01","end":"2026-06-30"},"group":[{"population":[{"code":{"coding":[{"system":"http://terminology.hl7.org/CodeSystem/measure-population","code":"initial-population","display":"Initial Population"}]},"count":1}]}],"evaluatedResource":[{"reference":"Patient/e7c3ce5f-06e7-437f-a611-3df5d324eaf9"},{"reference":"Encounter/5e0652969350f90000fe280e"},{"reference":"Coverage/5f996a36b977ef0000c0300c"},{"reference":"Observation/5b7c5683b84846299c81a5e1"},{"reference":"Organization/Org-123456"},{"reference":"Practitioner/practitioner-123456"}]},"request":{"method":"PUT","url":"MeasureReport/1170ea3d-385b-461c-b76f-3e6ca7eb325e"}}]}