{"resourceType":"Bundle","id":"tests-999429c0-38b9-4932-9f33-3c03a111eefa-bundle","type":"transaction","entry":[{"fullUrl":"https://madie.cms.gov/Patient/999429c0-38b9-4932-9f33-3c03a111eefa","resource":{"resourceType":"Patient","id":"999429c0-38b9-4932-9f33-3c03a111eefa","meta":{"profile":["http://hl7.org/fhir/us/qicore/StructureDefinition/qicore-patient"]},"extension":[{"url":"http://hl7.org/fhir/us/core/StructureDefinition/us-core-race","extension":[{"url":"ombCategory","valueCoding":{"system":"urn:oid:2.16.840.1.113883.6.238","code":"2054-5","display":"Black or African American","userSelected":true}},{"url":"text","valueString":"Black or African American"}]},{"url":"http://hl7.org/fhir/us/core/StructureDefinition/us-core-ethnicity","extension":[{"url":"ombCategory","valueCoding":{"system":"urn:oid:2.16.840.1.113883.6.238","code":"2186-5","display":"Not Hispanic or Latino","userSelected":true}},{"url":"text","valueString":"Not Hispanic or Latino"}]}],"identifier":[{"type":{"coding":[{"system":"http://terminology.hl7.org/CodeSystem/v2-0203","code":"MR"}]},"system":"https://GoodHealthCare.healthit.gov/","value":"6109658e98086b538055b9e4"}],"active":true,"name":[{"use":"usual","family":"IPPFail","given":["EncAfterfMPEdge"]}],"gender":"female","birthDate":"1987-11-30"},"request":{"method":"PUT","url":"Patient/999429c0-38b9-4932-9f33-3c03a111eefa"}},{"fullUrl":"https://madie.cms.gov/Encounter/604287465c49a000003f51d4","resource":{"resourceType":"Encounter","id":"241ef825-e4d6-4a01-a2d7-c11986b22bb0","meta":{"profile":["http://hl7.org/fhir/us/qicore/StructureDefinition/qicore-encounter"]},"status":"finished","class":{"system":"http://terminology.hl7.org/CodeSystem/v3-ActCode","code":"AMB","display":"ambulatory","userSelected":true},"type":[{"coding":[{"system":"http://www.ama-assn.org/go/cpt","version":"2023","code":"99315","display":"Nursing facility discharge management; 30 minutes or less total time on the date of the encounter","userSelected":true}]}],"subject":{"reference":"Patient/999429c0-38b9-4932-9f33-3c03a111eefa"},"period":{"start":"2025-12-31T23:45:00.000+00:00","end":"2026-01-01T00:00:00.000+00:00"}},"request":{"method":"PUT","url":"Encounter/241ef825-e4d6-4a01-a2d7-c11986b22bb0"}},{"fullUrl":"https://madie.cms.gov/Condition/700070023","resource":{"resourceType":"Condition","id":"b779043e-7367-4d21-85c0-1c60154e40ea","meta":{"profile":["http://hl7.org/fhir/us/qicore/StructureDefinition/qicore-condition"]},"clinicalStatus":{"coding":[{"system":"http://terminology.hl7.org/CodeSystem/condition-clinical","code":"active","display":"active","userSelected":true}]},"category":[{"coding":[{"system":"http://terminology.hl7.org/CodeSystem/condition-category","code":"problem-list-item","display":"problem-list-item","userSelected":true}]}],"code":{"coding":[{"system":"http://hl7.org/fhir/sid/icd-10-cm","version":"2023","code":"H40.10X0"}]},"subject":{"reference":"Patient/999429c0-38b9-4932-9f33-3c03a111eefa"},"onsetDateTime":"2023-09-14T08:00:00.000+00:00"},"request":{"method":"PUT","url":"Condition/b779043e-7367-4d21-85c0-1c60154e40ea"}},{"fullUrl":"https://madie.cms.gov/MeasureReport/e8af78fc-1fd0-4c9c-8f7f-e2e3c64bcc39","resource":{"resourceType":"MeasureReport","id":"e8af78fc-1fd0-4c9c-8f7f-e2e3c64bcc39","meta":{"profile":["http://hl7.org/fhir/us/cqfmeasures/StructureDefinition/test-case-cqfm"]},"contained":[{"resourceType":"Parameters","id":"d96e60bd-4736-4605-b00a-2d4486a80263-parameters","parameter":[{"name":"subject","valueString":"999429c0-38b9-4932-9f33-3c03a111eefa"}]}],"extension":[{"url":"http://hl7.org/fhir/us/cqfmeasures/StructureDefinition/cqfm-inputParameters","valueReference":{"reference":"#d96e60bd-4736-4605-b00a-2d4486a80263-parameters"}},{"url":"http://hl7.org/fhir/us/cqfmeasures/StructureDefinition/cqfm-testCaseDescription","valueMarkdown":"POAG Encounter ends 1 minute after Measurement Period Edge."}],"modifierExtension":[{"url":"http://hl7.org/fhir/us/cqfmeasures/StructureDefinition/cqfm-isTestCase","valueBoolean":true}],"status":"complete","type":"individual","measure":"https://madie.cms.gov/Measure/POAGOpticNerveEvaluationFHIR","period":{"start":"2025-01-01","end":"2025-12-31"},"group":[{"population":[{"code":{"coding":[{"system":"http://terminology.hl7.org/CodeSystem/measure-population","code":"initial-population","display":"Initial Population"}]},"count":0},{"code":{"coding":[{"system":"http://terminology.hl7.org/CodeSystem/measure-population","code":"denominator","display":"Denominator"}]},"count":0},{"code":{"coding":[{"system":"http://terminology.hl7.org/CodeSystem/measure-population","code":"denominator-exception","display":"Denominator Exception"}]},"count":0},{"code":{"coding":[{"system":"http://terminology.hl7.org/CodeSystem/measure-population","code":"numerator","display":"Numerator"}]},"count":0}]}]},"request":{"method":"PUT","url":"MeasureReport/e8af78fc-1fd0-4c9c-8f7f-e2e3c64bcc39"}}]}