{"resourceType":"Bundle","id":"tests-b73f2b5d-98a4-4742-b2d6-979bd3e075a8-bundle","type":"transaction","entry":[{"fullUrl":"https://madie.cms.gov/Patient/b73f2b5d-98a4-4742-b2d6-979bd3e075a8","resource":{"resourceType":"Patient","id":"b73f2b5d-98a4-4742-b2d6-979bd3e075a8","meta":{"profile":["http://hl7.org/fhir/us/qicore/StructureDefinition/qicore-patient"]},"extension":[{"url":"http://hl7.org/fhir/us/core/StructureDefinition/us-core-race","extension":[{"url":"ombCategory","valueCoding":{"system":"urn:oid:2.16.840.1.113883.6.238","code":"2054-5","display":"Black or African American","userSelected":true}},{"url":"text","valueString":"Black or African American"}]},{"url":"http://hl7.org/fhir/us/core/StructureDefinition/us-core-ethnicity","extension":[{"url":"ombCategory","valueCoding":{"system":"urn:oid:2.16.840.1.113883.6.238","code":"2186-5","display":"Not Hispanic or Latino","userSelected":true}},{"url":"text","valueString":"Not Hispanic or Latino"}]}],"identifier":[{"type":{"coding":[{"system":"http://terminology.hl7.org/CodeSystem/v2-0203","code":"MR"}]},"system":"https://GoodHealthCare.healthit.gov/","value":"6109658e98086b538055b9e4"}],"active":true,"name":[{"use":"usual","family":"IPPass","given":["EncB4EndofMPEdge"]}],"gender":"male","birthDate":"2001-12-31"},"request":{"method":"PUT","url":"Patient/b73f2b5d-98a4-4742-b2d6-979bd3e075a8"}},{"fullUrl":"https://madie.cms.gov/Encounter/604287465c49a000003f51d4","resource":{"resourceType":"Encounter","id":"604287465c49a000003f51d4","meta":{"profile":["http://hl7.org/fhir/us/qicore/StructureDefinition/qicore-encounter"]},"status":"finished","class":{"system":"http://terminology.hl7.org/CodeSystem/v3-ActCode","code":"AMB","display":"ambulatory","userSelected":true},"type":[{"coding":[{"system":"http://snomed.info/sct","version":"http://snomed.info/sct/731000124108/version/202303","code":"37894004"},{"system":"http://www.ama-assn.org/go/cpt","version":"2023","code":"99213","userSelected":true}]}],"subject":{"reference":"Patient/b73f2b5d-98a4-4742-b2d6-979bd3e075a8"},"period":{"start":"2025-12-31T23:45:00.000+00:00","end":"2025-12-31T23:59:00.000+00:00"}},"request":{"method":"PUT","url":"Encounter/604287465c49a000003f51d4"}},{"fullUrl":"https://madie.cms.gov/Condition/700070023","resource":{"resourceType":"Condition","id":"700070023","meta":{"profile":["http://hl7.org/fhir/us/qicore/StructureDefinition/qicore-condition"]},"clinicalStatus":{"coding":[{"system":"http://terminology.hl7.org/CodeSystem/condition-clinical","code":"active","display":"active","userSelected":true}]},"category":[{"coding":[{"system":"http://terminology.hl7.org/CodeSystem/condition-category","code":"problem-list-item","display":"problem-list-item","userSelected":true}]}],"code":{"coding":[{"system":"http://hl7.org/fhir/sid/icd-10-cm","version":"2023","code":"H40.10X0"}]},"subject":{"reference":"Patient/b73f2b5d-98a4-4742-b2d6-979bd3e075a8"},"onsetDateTime":"2023-09-14T08:00:00.000+00:00"},"request":{"method":"PUT","url":"Condition/700070023"}},{"fullUrl":"https://madie.cms.gov/MeasureReport/9208f392-5604-488b-974f-f1ff805fa001","resource":{"resourceType":"MeasureReport","id":"9208f392-5604-488b-974f-f1ff805fa001","meta":{"profile":["http://hl7.org/fhir/us/cqfmeasures/StructureDefinition/test-case-cqfm"]},"contained":[{"resourceType":"Parameters","id":"290f9e89-a328-450f-a3d7-6ed5cf711cc6-parameters","parameter":[{"name":"subject","valueString":"b73f2b5d-98a4-4742-b2d6-979bd3e075a8"}]}],"extension":[{"url":"http://hl7.org/fhir/us/cqfmeasures/StructureDefinition/cqfm-inputParameters","valueReference":{"reference":"#290f9e89-a328-450f-a3d7-6ed5cf711cc6-parameters"}},{"url":"http://hl7.org/fhir/us/cqfmeasures/StructureDefinition/cqfm-testCaseDescription","valueMarkdown":"Edge Test case with Qualifying Encounter such that period ends 1 minute before end of MP"}],"modifierExtension":[{"url":"http://hl7.org/fhir/us/cqfmeasures/StructureDefinition/cqfm-isTestCase","valueBoolean":true}],"status":"complete","type":"individual","measure":"https://madie.cms.gov/Measure/POAGOpticNerveEvaluationFHIR","period":{"start":"2025-01-01","end":"2025-12-31"},"group":[{"population":[{"code":{"coding":[{"system":"http://terminology.hl7.org/CodeSystem/measure-population","code":"initial-population","display":"Initial Population"}]},"count":1},{"code":{"coding":[{"system":"http://terminology.hl7.org/CodeSystem/measure-population","code":"denominator","display":"Denominator"}]},"count":1},{"code":{"coding":[{"system":"http://terminology.hl7.org/CodeSystem/measure-population","code":"denominator-exception","display":"Denominator Exception"}]},"count":0},{"code":{"coding":[{"system":"http://terminology.hl7.org/CodeSystem/measure-population","code":"numerator","display":"Numerator"}]},"count":0}]}],"evaluatedResource":[{"reference":"Patient/b73f2b5d-98a4-4742-b2d6-979bd3e075a8"},{"reference":"Encounter/604287465c49a000003f51d4"},{"reference":"Condition/700070023"}]},"request":{"method":"PUT","url":"MeasureReport/9208f392-5604-488b-974f-f1ff805fa001"}}]}