{"resourceType":"Bundle","id":"tests-523eeca6-d45d-4326-a397-627bea696810-bundle","type":"transaction","entry":[{"fullUrl":"Patient/523eeca6-d45d-4326-a397-627bea696810","resource":{"resourceType":"Patient","id":"523eeca6-d45d-4326-a397-627bea696810","meta":{"profile":["http://hl7.org/fhir/us/qicore/StructureDefinition/qicore-patient"]},"extension":[{"url":"http://hl7.org/fhir/us/core/StructureDefinition/us-core-race","extension":[{"url":"ombCategory","valueCoding":{"system":"urn:oid:2.16.840.1.113883.6.238","code":"1002-5","display":"American Indian or Alaska Native","userSelected":true}},{"url":"text","valueString":"American Indian or Alaska Native"}]},{"url":"http://hl7.org/fhir/us/core/StructureDefinition/us-core-ethnicity","extension":[{"url":"ombCategory","valueCoding":{"system":"urn:oid:2.16.840.1.113883.6.238","code":"2135-2","display":"Hispanic or Latino","userSelected":true}},{"url":"text","valueString":"Hispanic or Latino"}]}],"identifier":[{"type":{"coding":[{"system":"http://terminology.hl7.org/CodeSystem/v2-0203","code":"MR"}]},"system":"https://bonnie-fhir.healthit.gov/","value":"6109658e98086b538055b9df"}],"active":true,"name":[{"use":"usual","family":"DENEXCEPFail","given":["DiscExamNotDoneNoMR"]}],"gender":"male","birthDate":"1966-06-14"},"request":{"method":"PUT","url":"Patient/523eeca6-d45d-4326-a397-627bea696810"}},{"fullUrl":"Condition/C-500023006","resource":{"resourceType":"Condition","id":"C-500023006","meta":{"profile":["http://hl7.org/fhir/us/qicore/StructureDefinition/qicore-condition"]},"clinicalStatus":{"coding":[{"system":"http://terminology.hl7.org/CodeSystem/condition-clinical","code":"active","display":"active","userSelected":true}]},"category":[{"coding":[{"system":"http://terminology.hl7.org/CodeSystem/condition-category","code":"problem-list-item","display":"problem-list-item","userSelected":true}]}],"code":{"coding":[{"system":"http://snomed.info/sct","version":"http://snomed.info/sct/731000124108/version/202303","code":"111513000","display":"Advanced open-angle glaucoma (disorder)","userSelected":true},{"system":"http://hl7.org/fhir/sid/icd-10-cm","code":"H40.10X0","userSelected":true}]},"subject":{"reference":"Patient/523eeca6-d45d-4326-a397-627bea696810"},"onsetDateTime":"2012-04-11T08:00:00.000+00:00","recordedDate":"2012-04-11T12:40:00.000+00:00"},"request":{"method":"PUT","url":"Condition/C-500023006"}},{"fullUrl":"Encounter/E-500023005","resource":{"resourceType":"Encounter","id":"E-500023005","meta":{"profile":["http://hl7.org/fhir/us/qicore/StructureDefinition/qicore-encounter"]},"status":"finished","class":{"system":"http://terminology.hl7.org/CodeSystem/v3-ActCode","code":"AMB","display":"ambulatory","userSelected":true},"type":[{"coding":[{"system":"http://snomed.info/sct","version":"http://snomed.info/sct/731000124108/version/202303","code":"359960003","display":"Ophthalmologic examination and evaluation under general anesthesia, limited (procedure)","userSelected":true},{"system":"http://www.ama-assn.org/go/cpt","version":"2023","code":"92004","userSelected":true}]}],"subject":{"reference":"Patient/523eeca6-d45d-4326-a397-627bea696810"},"period":{"start":"2025-03-15T08:00:00.000+00:00","end":"2025-03-15T08:30:00.000+00:00"}},"request":{"method":"PUT","url":"Encounter/E-500023005"}},{"fullUrl":"Observation/O-500023003","resource":{"resourceType":"Observation","id":"O-500023003","meta":{"profile":["http://hl7.org/fhir/us/qicore/StructureDefinition/qicore-observation"]},"status":"cancelled","category":[{"coding":[{"system":"http://terminology.hl7.org/CodeSystem/observation-category","code":"laboratory","display":"laboratory","userSelected":true}]}],"code":{"coding":[{"system":"http://loinc.org","version":"2.73","code":"71486-5","display":"Left eye Optic disc or retinal nerve fiber layer structural abnormalities by Ophthalmoscopy","userSelected":true}]},"subject":{"reference":"Patient/523eeca6-d45d-4326-a397-627bea696810"},"effectiveDateTime":"2025-03-15T08:15:00.000+00:00"},"request":{"method":"PUT","url":"Observation/O-500023003"}},{"fullUrl":"MeasureReport/d564f120-dba9-4941-ad61-ac6bf0d3bdd9","resource":{"resourceType":"MeasureReport","id":"d564f120-dba9-4941-ad61-ac6bf0d3bdd9","meta":{"profile":["http://hl7.org/fhir/us/cqfmeasures/StructureDefinition/test-case-cqfm"]},"contained":[{"resourceType":"Parameters","id":"38737a5c-e850-4550-ac22-ac7145442d13-parameters","parameter":[{"name":"subject","valueString":"523eeca6-d45d-4326-a397-627bea696810"}]}],"extension":[{"url":"http://hl7.org/fhir/us/cqfmeasures/StructureDefinition/cqfm-inputParameters","valueReference":{"reference":"#38737a5c-e850-4550-ac22-ac7145442d13-parameters"}},{"url":"http://hl7.org/fhir/us/cqfmeasures/StructureDefinition/cqfm-testCaseDescription","valueMarkdown":"Patient with Diagnosis: Primary Open-Angle Glaucoma.   Diagnostic Study Performed: Optic Disc Exam for Structural Abnormalities result not recorded, but no medical reason noted"}],"modifierExtension":[{"url":"http://hl7.org/fhir/us/cqfmeasures/StructureDefinition/cqfm-isTestCase","valueBoolean":true}],"status":"complete","type":"individual","measure":"Measure/POAGOpticNerveEvaluationFHIR","period":{"start":"2025-01-01","end":"2025-12-31"},"group":[{"population":[{"code":{"coding":[{"system":"http://terminology.hl7.org/CodeSystem/measure-population","code":"initial-population","display":"Initial Population"}]},"count":1},{"code":{"coding":[{"system":"http://terminology.hl7.org/CodeSystem/measure-population","code":"denominator","display":"Denominator"}]},"count":1},{"code":{"coding":[{"system":"http://terminology.hl7.org/CodeSystem/measure-population","code":"denominator-exception","display":"Denominator Exception"}]},"count":0},{"code":{"coding":[{"system":"http://terminology.hl7.org/CodeSystem/measure-population","code":"numerator","display":"Numerator"}]},"count":0}]}],"evaluatedResource":[{"reference":"Patient/523eeca6-d45d-4326-a397-627bea696810"},{"reference":"Condition/C-500023006"},{"reference":"Encounter/E-500023005"},{"reference":"Observation/O-500023003"}]},"request":{"method":"PUT","url":"MeasureReport/d564f120-dba9-4941-ad61-ac6bf0d3bdd9"}}]}