{"resourceType":"Bundle","id":"tests-9d5d6b94-a5a2-4544-be69-831ea5359943-bundle","type":"transaction","entry":[{"fullUrl":"Patient/9d5d6b94-a5a2-4544-be69-831ea5359943","resource":{"resourceType":"Patient","id":"9d5d6b94-a5a2-4544-be69-831ea5359943","meta":{"profile":["http://hl7.org/fhir/us/qicore/StructureDefinition/qicore-patient"]},"extension":[{"url":"http://hl7.org/fhir/us/core/StructureDefinition/us-core-race","extension":[{"url":"ombCategory","valueCoding":{"system":"urn:oid:2.16.840.1.113883.6.238","code":"2106-3","display":"White","userSelected":true}},{"url":"text","valueString":"White"}]},{"url":"http://hl7.org/fhir/us/core/StructureDefinition/us-core-ethnicity","extension":[{"url":"ombCategory","valueCoding":{"system":"urn:oid:2.16.840.1.113883.6.238","code":"2186-5","display":"Not Hispanic or Latino","userSelected":true}},{"url":"text","valueString":"Not Hispanic or Latino"}]}],"identifier":[{"type":{"coding":[{"system":"http://terminology.hl7.org/CodeSystem/v2-0203","code":"MR"}]},"system":"https://bonnie-fhir.healthit.gov/","value":"6109658e98086b538055b9e4"}],"active":true,"name":[{"use":"usual","family":"IPPFail","given":["QualifyingEncHasNoEndDate"]}],"gender":"male","birthDate":"2004-02-01"},"request":{"method":"PUT","url":"Patient/9d5d6b94-a5a2-4544-be69-831ea5359943"}},{"fullUrl":"Encounter/604287465c49a000003f51d4","resource":{"resourceType":"Encounter","id":"604287465c49a000003f51d4","meta":{"profile":["http://hl7.org/fhir/us/qicore/StructureDefinition/qicore-encounter"]},"status":"finished","class":{"system":"http://terminology.hl7.org/CodeSystem/v3-ActCode","code":"AMB","display":"ambulatory","userSelected":true},"type":[{"coding":[{"system":"http://snomed.info/sct","version":"http://snomed.info/sct/731000124108/version/202303","code":"37894004"},{"system":"http://www.ama-assn.org/go/cpt","version":"2023","code":"99213","userSelected":true}]}],"subject":{"reference":"Patient/9d5d6b94-a5a2-4544-be69-831ea5359943"},"period":{"start":"2025-12-31T23:45:00.000+00:00"}},"request":{"method":"PUT","url":"Encounter/604287465c49a000003f51d4"}},{"fullUrl":"Condition/C-700070023","resource":{"resourceType":"Condition","id":"C-700070023","meta":{"profile":["http://hl7.org/fhir/us/qicore/StructureDefinition/qicore-condition"]},"clinicalStatus":{"coding":[{"system":"http://terminology.hl7.org/CodeSystem/condition-clinical","code":"active","display":"active","userSelected":true}]},"category":[{"coding":[{"system":"http://terminology.hl7.org/CodeSystem/condition-category","code":"problem-list-item","display":"problem-list-item","userSelected":true}]}],"code":{"coding":[{"system":"http://hl7.org/fhir/sid/icd-10-cm","version":"2023","code":"H40.10X0"}]},"subject":{"reference":"Patient/9d5d6b94-a5a2-4544-be69-831ea5359943"},"onsetDateTime":"2023-09-14T08:00:00.000+00:00"},"request":{"method":"PUT","url":"Condition/C-700070023"}},{"fullUrl":"MeasureReport/529dd56e-9a71-497d-b3c3-61d66cfc5fb8","resource":{"resourceType":"MeasureReport","id":"529dd56e-9a71-497d-b3c3-61d66cfc5fb8","meta":{"profile":["http://hl7.org/fhir/us/cqfmeasures/StructureDefinition/test-case-cqfm"]},"contained":[{"resourceType":"Parameters","id":"23ea7cc1-96cf-4630-bba3-4772f59c5e5e-parameters","parameter":[{"name":"subject","valueString":"9d5d6b94-a5a2-4544-be69-831ea5359943"}]}],"extension":[{"url":"http://hl7.org/fhir/us/cqfmeasures/StructureDefinition/cqfm-inputParameters","valueReference":{"reference":"#23ea7cc1-96cf-4630-bba3-4772f59c5e5e-parameters"}},{"url":"http://hl7.org/fhir/us/cqfmeasures/StructureDefinition/cqfm-testCaseDescription","valueMarkdown":"Patient has qualifying encounter with null ending date in period meaning the encounter is still open and should fail IPP criteria"}],"modifierExtension":[{"url":"http://hl7.org/fhir/us/cqfmeasures/StructureDefinition/cqfm-isTestCase","valueBoolean":true}],"status":"complete","type":"individual","measure":"Measure/POAGOpticNerveEvaluationFHIR","period":{"start":"2025-01-01","end":"2025-12-31"},"group":[{"population":[{"code":{"coding":[{"system":"http://terminology.hl7.org/CodeSystem/measure-population","code":"initial-population","display":"Initial Population"}]},"count":0},{"code":{"coding":[{"system":"http://terminology.hl7.org/CodeSystem/measure-population","code":"denominator","display":"Denominator"}]},"count":0},{"code":{"coding":[{"system":"http://terminology.hl7.org/CodeSystem/measure-population","code":"denominator-exception","display":"Denominator Exception"}]},"count":0},{"code":{"coding":[{"system":"http://terminology.hl7.org/CodeSystem/measure-population","code":"numerator","display":"Numerator"}]},"count":0}]}],"evaluatedResource":[{"reference":"Patient/9d5d6b94-a5a2-4544-be69-831ea5359943"},{"reference":"Encounter/604287465c49a000003f51d4"},{"reference":"Condition/C-700070023"}]},"request":{"method":"PUT","url":"MeasureReport/529dd56e-9a71-497d-b3c3-61d66cfc5fb8"}}]}