{"resourceType":"Bundle","id":"tests-4163cf16-fe03-4cb3-aa8e-1be30b80bd22-bundle","type":"transaction","entry":[{"fullUrl":"https://madie.cms.gov/Patient/4163cf16-fe03-4cb3-aa8e-1be30b80bd22","resource":{"resourceType":"Patient","id":"4163cf16-fe03-4cb3-aa8e-1be30b80bd22","meta":{"profile":["http://hl7.org/fhir/us/qicore/StructureDefinition/qicore-patient"]},"extension":[{"url":"http://hl7.org/fhir/us/core/StructureDefinition/us-core-race","extension":[{"url":"ombCategory","valueCoding":{"system":"urn:oid:2.16.840.1.113883.6.238","code":"1002-5","display":"American Indian or Alaska Native","userSelected":true}},{"url":"text","valueString":"American Indian or Alaska Native"}]},{"url":"http://hl7.org/fhir/us/core/StructureDefinition/us-core-ethnicity","extension":[{"url":"ombCategory","valueCoding":{"system":"urn:oid:2.16.840.1.113883.6.238","code":"2186-5","display":"Not Hispanic or Latino","userSelected":true}},{"url":"text","valueString":"Not Hispanic or Latino"}]}],"identifier":[{"type":{"coding":[{"system":"http://terminology.hl7.org/CodeSystem/v2-0203","code":"MR"}]},"system":"https://GoodHealthCare.com/","value":"6109658e98086b538055b9e4"}],"active":true,"name":[{"use":"usual","family":"IPPFail","given":["GlaucomaAbatedB4Enc"]}],"gender":"male","birthDate":"2004-12-31"},"request":{"method":"PUT","url":"Patient/4163cf16-fe03-4cb3-aa8e-1be30b80bd22"}},{"fullUrl":"https://madie.cms.gov/Encounter/604287465c49a000003f51d4","resource":{"resourceType":"Encounter","id":"604287465c49a000003f51d4","meta":{"profile":["http://hl7.org/fhir/us/qicore/StructureDefinition/qicore-encounter"]},"status":"finished","class":{"system":"http://terminology.hl7.org/CodeSystem/v3-ActCode","code":"AMB","display":"ambulatory","userSelected":true},"type":[{"coding":[{"system":"http://snomed.info/sct","version":"http://snomed.info/sct/731000124108/version/202303","code":"37894004"},{"system":"http://www.ama-assn.org/go/cpt","version":"2023","code":"99213","userSelected":true}]}],"subject":{"reference":"Patient/4163cf16-fe03-4cb3-aa8e-1be30b80bd22"},"period":{"start":"2025-03-05T08:00:00.000+00:00","end":"2025-03-05T08:30:00.000+00:00"}},"request":{"method":"PUT","url":"Encounter/604287465c49a000003f51d4"}},{"fullUrl":"https://madie.cms.gov/Condition/6420002306","resource":{"resourceType":"Condition","id":"6420002306","meta":{"profile":["http://hl7.org/fhir/us/qicore/StructureDefinition/qicore-condition"]},"clinicalStatus":{"coding":[{"system":"http://terminology.hl7.org/CodeSystem/condition-clinical","code":"inactive","display":"resolved"}]},"category":[{"coding":[{"system":"http://terminology.hl7.org/CodeSystem/condition-category","code":"problem-list-item","display":"problem-list-item","userSelected":true}]}],"code":{"coding":[{"system":"http://hl7.org/fhir/sid/icd-10-cm","version":"2023","code":"H40.10X0"}]},"subject":{"reference":"Patient/4163cf16-fe03-4cb3-aa8e-1be30b80bd22"},"onsetDateTime":"2023-09-14T08:00:00.000+00:00","abatementDateTime":"2025-03-04T08:00:00.000+00:00"},"request":{"method":"PUT","url":"Condition/6420002306"}},{"fullUrl":"https://madie.cms.gov/MeasureReport/f48086c2-4433-40a9-9c86-50d377d2941f","resource":{"resourceType":"MeasureReport","id":"f48086c2-4433-40a9-9c86-50d377d2941f","meta":{"profile":["http://hl7.org/fhir/us/cqfmeasures/StructureDefinition/test-case-cqfm"]},"contained":[{"resourceType":"Parameters","id":"83e7c86e-55ee-49c2-a932-8d6a08c9ba34-parameters","parameter":[{"name":"subject","valueString":"4163cf16-fe03-4cb3-aa8e-1be30b80bd22"}]}],"extension":[{"url":"http://hl7.org/fhir/us/cqfmeasures/StructureDefinition/cqfm-inputParameters","valueReference":{"reference":"#83e7c86e-55ee-49c2-a932-8d6a08c9ba34-parameters"}},{"url":"http://hl7.org/fhir/us/cqfmeasures/StructureDefinition/cqfm-testCaseDescription","valueMarkdown":"Patient with Glaucoma Diagnosis that is abated last day before start of encounter and does not meet active diagnosis criteria overlap to encounter"}],"modifierExtension":[{"url":"http://hl7.org/fhir/us/cqfmeasures/StructureDefinition/cqfm-isTestCase","valueBoolean":true}],"status":"complete","type":"individual","measure":"https://madie.cms.gov/Measure/POAGOpticNerveEvaluationFHIR","period":{"start":"2025-01-01","end":"2025-12-31"},"group":[{"population":[{"code":{"coding":[{"system":"http://terminology.hl7.org/CodeSystem/measure-population","code":"initial-population","display":"Initial Population"}]},"count":0},{"code":{"coding":[{"system":"http://terminology.hl7.org/CodeSystem/measure-population","code":"denominator","display":"Denominator"}]},"count":0},{"code":{"coding":[{"system":"http://terminology.hl7.org/CodeSystem/measure-population","code":"denominator-exception","display":"Denominator Exception"}]},"count":0},{"code":{"coding":[{"system":"http://terminology.hl7.org/CodeSystem/measure-population","code":"numerator","display":"Numerator"}]},"count":0}]}],"evaluatedResource":[{"reference":"Patient/4163cf16-fe03-4cb3-aa8e-1be30b80bd22"},{"reference":"Encounter/604287465c49a000003f51d4"},{"reference":"Condition/6420002306"}]},"request":{"method":"PUT","url":"MeasureReport/f48086c2-4433-40a9-9c86-50d377d2941f"}}]}