{"resourceType":"Bundle","id":"tests-458dd1d9-f5d6-4b5f-867c-8521f1d3330d-bundle","type":"transaction","entry":[{"fullUrl":"Patient/458dd1d9-f5d6-4b5f-867c-8521f1d3330d","resource":{"resourceType":"Patient","id":"458dd1d9-f5d6-4b5f-867c-8521f1d3330d","meta":{"profile":["http://hl7.org/fhir/us/qicore/StructureDefinition/qicore-patient"]},"extension":[{"url":"http://hl7.org/fhir/us/core/StructureDefinition/us-core-race","extension":[{"url":"ombCategory","valueCoding":{"system":"urn:oid:2.16.840.1.113883.6.238","code":"2028-9","display":"Asian","userSelected":true}},{"url":"text","valueString":"Asian"}]},{"url":"http://hl7.org/fhir/us/core/StructureDefinition/us-core-ethnicity","extension":[{"url":"ombCategory","valueCoding":{"system":"urn:oid:2.16.840.1.113883.6.238","code":"2186-5","display":"Not Hispanic or Latino","userSelected":true}},{"url":"text","valueString":"Not Hispanic or Latino"}]}],"identifier":[{"type":{"coding":[{"system":"http://terminology.hl7.org/CodeSystem/v2-0203","code":"MR"}]},"system":"https://bonnie-fhir.healthit.gov/","value":"64e771aa2e9f5b621ea08696"}],"name":[{"family":"AAPracticeIPPFail","given":["SeenVirtually (1)"]}],"gender":"female","birthDate":"1991-06-01"},"request":{"method":"PUT","url":"Patient/458dd1d9-f5d6-4b5f-867c-8521f1d3330d"}},{"fullUrl":"Condition/primary-open-angle-glaucoma-e64e","resource":{"resourceType":"Condition","id":"primary-open-angle-glaucoma-e64e","meta":{"profile":["http://hl7.org/fhir/us/qicore/StructureDefinition/qicore-condition"]},"clinicalStatus":{"coding":[{"system":"http://terminology.hl7.org/CodeSystem/condition-clinical","code":"active","display":"active","userSelected":true}]},"category":[{"coding":[{"system":"http://terminology.hl7.org/CodeSystem/condition-category","code":"problem-list-item","display":"Problem List Item"}]}],"code":{"coding":[{"system":"http://snomed.info/sct","version":"2021-09","code":"111513000","display":"Advanced open-angle glaucoma (disorder)","userSelected":true},{"system":"http://hl7.org/fhir/sid/icd-10-cm","code":"H40.10X0","userSelected":true}]},"subject":{"reference":"Patient/64e771aa2e9f5b621ea08696"},"onsetDateTime":"2012-11-09T08:00:00.000+00:00"},"request":{"method":"PUT","url":"Condition/primary-open-angle-glaucoma-e64e"}},{"fullUrl":"Encounter/office-visit-e64f","resource":{"resourceType":"Encounter","id":"office-visit-e64f","meta":{"profile":["http://hl7.org/fhir/us/qicore/StructureDefinition/qicore-encounter"]},"status":"finished","class":{"system":"http://terminology.hl7.org/CodeSystem/v3-ActCode","code":"VR","display":"virtual","userSelected":true},"type":[{"coding":[{"system":"http://snomed.info/sct","version":"2021-09","code":"185463005","display":"Visit out of hours (procedure)","userSelected":true}]}],"subject":{"reference":"Patient/64e771aa2e9f5b621ea08696"},"period":{"start":"2023-01-09T08:00:00.000+00:00","end":"2023-01-09T09:15:00.000+00:00"}},"request":{"method":"PUT","url":"Encounter/office-visit-e64f"}},{"fullUrl":"Observation/cup-to-disc-ratio-e650","resource":{"resourceType":"Observation","id":"cup-to-disc-ratio-e650","meta":{"profile":["http://hl7.org/fhir/StructureDefinition/vitalsigns"]},"status":"final","category":[{"coding":[{"system":"http://terminology.hl7.org/CodeSystem/observation-category","code":"exam","display":"exam","userSelected":true}]},{"coding":[{"system":"http://terminology.hl7.org/CodeSystem/observation-category","code":"vital-signs","display":"Vital Signs","userSelected":true}]}],"code":{"coding":[{"system":"http://loinc.org","version":"2.71","code":"71484-0","display":"Left optic nerve Cup-disc ratio by Ophthalmoscopy","userSelected":true}]},"subject":{"reference":"Patient/64e771aa2e9f5b621ea08696"},"effectiveDateTime":"2023-01-09T09:00:00.000+00:00","valueBoolean":true},"request":{"method":"PUT","url":"Observation/cup-to-disc-ratio-e650"}},{"fullUrl":"Coverage/Coverage-1","resource":{"resourceType":"Coverage","id":"Coverage-1","meta":{"profile":["http://hl7.org/fhir/us/qicore/StructureDefinition/qicore-coverage"]},"status":"active","beneficiary":{"reference":"Patient/64e771aa2e9f5b621ea08696"},"payor":[{"reference":"Organization/Org-123456"}]},"request":{"method":"PUT","url":"Coverage/Coverage-1"}},{"fullUrl":"Organization/Org-123456","resource":{"resourceType":"Organization","id":"Org-123456","meta":{"profile":["http://hl7.org/fhir/us/qicore/StructureDefinition/qicore-organization"]},"identifier":[{"use":"temp","system":"urn:oid:2.16.840.1.113883.4.4","value":"21-3259825"}],"active":true,"type":[{"coding":[{"system":"http://terminology.hl7.org/CodeSystem/organization-type","code":"pay","display":"Payer"}]}],"name":"Blue Cross Blue Shield of Texas","telecom":[{"system":"phone","value":"(+1) 972-766-6900"}],"address":[{"use":"billing","type":"postal","line":["P.O. Box 660044"],"city":"Dallas","state":"TX","postalCode":"75266-0044","country":"USA"}]},"request":{"method":"PUT","url":"Organization/Org-123456"}},{"fullUrl":"Practitioner/practitioner-123456","resource":{"resourceType":"Practitioner","id":"practitioner-123456","meta":{"profile":["http://hl7.org/fhir/us/qicore/StructureDefinition/qicore-practitioner"]},"identifier":[{"system":"http://hl7.org/fhir/sid/us-npi","value":"123456"}],"name":[{"family":"Evil","prefix":["Dr"]}]},"request":{"method":"PUT","url":"Practitioner/practitioner-123456"}},{"fullUrl":"MeasureReport/adde695b-e42f-4e44-9668-48a984572db0","resource":{"resourceType":"MeasureReport","id":"adde695b-e42f-4e44-9668-48a984572db0","meta":{"profile":["http://hl7.org/fhir/us/cqfmeasures/StructureDefinition/test-case-cqfm"]},"contained":[{"resourceType":"Parameters","id":"38e4f5d1-01d3-4473-9cc4-24350e28c403-parameters","parameter":[{"name":"subject","valueString":"458dd1d9-f5d6-4b5f-867c-8521f1d3330d"}]}],"extension":[{"url":"http://hl7.org/fhir/us/cqfmeasures/StructureDefinition/cqfm-inputParameters","valueReference":{"reference":"#38e4f5d1-01d3-4473-9cc4-24350e28c403-parameters"}},{"url":"http://hl7.org/fhir/us/cqfmeasures/StructureDefinition/cqfm-testCaseDescription","valueMarkdown":"Patient has an otherwise qualifying encounter but their qualifying encounter was held virtually"}],"modifierExtension":[{"url":"http://hl7.org/fhir/us/cqfmeasures/StructureDefinition/cqfm-isTestCase","valueBoolean":true}],"status":"complete","type":"individual","measure":"Measure/POAGOpticNerveEvaluationFHIR","period":{"start":"2025-01-01","end":"2025-12-31"},"group":[{"population":[{"code":{"coding":[{"system":"http://terminology.hl7.org/CodeSystem/measure-population","code":"initial-population","display":"Initial Population"}]},"count":0},{"code":{"coding":[{"system":"http://terminology.hl7.org/CodeSystem/measure-population","code":"denominator","display":"Denominator"}]},"count":0},{"code":{"coding":[{"system":"http://terminology.hl7.org/CodeSystem/measure-population","code":"denominator-exception","display":"Denominator Exception"}]},"count":0},{"code":{"coding":[{"system":"http://terminology.hl7.org/CodeSystem/measure-population","code":"numerator","display":"Numerator"}]},"count":0}]}],"evaluatedResource":[{"reference":"Patient/458dd1d9-f5d6-4b5f-867c-8521f1d3330d"},{"reference":"Condition/primary-open-angle-glaucoma-e64e"},{"reference":"Encounter/office-visit-e64f"},{"reference":"Observation/cup-to-disc-ratio-e650"},{"reference":"Coverage/Coverage-1"},{"reference":"Organization/Org-123456"},{"reference":"Practitioner/practitioner-123456"}]},"request":{"method":"PUT","url":"MeasureReport/adde695b-e42f-4e44-9668-48a984572db0"}}]}