{"resourceType":"Bundle","id":"tests-68109c29-0e38-4fb1-b994-846311eb3079-bundle","type":"transaction","entry":[{"fullUrl":"Patient/68109c29-0e38-4fb1-b994-846311eb3079","resource":{"resourceType":"Patient","id":"68109c29-0e38-4fb1-b994-846311eb3079","meta":{"profile":["http://hl7.org/fhir/us/qicore/StructureDefinition/qicore-patient"]},"extension":[{"url":"http://hl7.org/fhir/us/core/StructureDefinition/us-core-race","extension":[{"url":"ombCategory","valueCoding":{"system":"urn:oid:2.16.840.1.113883.6.238","code":"2106-3","display":"White","userSelected":true}},{"url":"text","valueString":"White"}]},{"url":"http://hl7.org/fhir/us/core/StructureDefinition/us-core-ethnicity","extension":[{"url":"ombCategory","valueCoding":{"system":"urn:oid:2.16.840.1.113883.6.238","code":"2135-2","display":"Hispanic or Latino","userSelected":true}},{"url":"text","valueString":"Hispanic or Latino"}]}],"identifier":[{"type":{"coding":[{"system":"http://terminology.hl7.org/CodeSystem/v2-0203","code":"MR"}]},"system":"https://GoodHealthCare.com/","value":"6109658e98086b538055b9d0"}],"active":true,"name":[{"use":"usual","family":"NUMERPass","given":["OpticDiscExm1MinB4EncEdge"]}],"gender":"male","birthDate":"1969-03-15"},"request":{"method":"PUT","url":"Patient/68109c29-0e38-4fb1-b994-846311eb3079"}},{"fullUrl":"Condition/5e1f9548eab2e700004583ec","resource":{"resourceType":"Condition","id":"5e1f9548eab2e700004583ec","meta":{"profile":["http://hl7.org/fhir/us/qicore/StructureDefinition/qicore-condition"]},"clinicalStatus":{"coding":[{"system":"http://terminology.hl7.org/CodeSystem/condition-clinical","code":"active","display":"active","userSelected":true}]},"category":[{"coding":[{"system":"http://terminology.hl7.org/CodeSystem/condition-category","code":"problem-list-item","display":"problem-list-item","userSelected":true}]}],"code":{"coding":[{"system":"http://hl7.org/fhir/sid/icd-10-cm","version":"2023","code":"H40.1121"}]},"subject":{"reference":"Patient/68109c29-0e38-4fb1-b994-846311eb3079"},"onsetDateTime":"2019-03-15T07:30:00+00:00"},"request":{"method":"PUT","url":"Condition/5e1f9548eab2e700004583ec"}},{"fullUrl":"Observation/5c9a433bb848462383850286","resource":{"resourceType":"Observation","id":"5c9a433bb848462383850286","meta":{"profile":["http://hl7.org/fhir/us/qicore/StructureDefinition/qicore-observation"]},"status":"final","category":[{"coding":[{"system":"http://terminology.hl7.org/CodeSystem/observation-category","code":"laboratory","display":"laboratory","userSelected":true}]}],"code":{"coding":[{"system":"http://loinc.org","version":"2.73","code":"71487-3"}]},"subject":{"reference":"Patient/68109c29-0e38-4fb1-b994-846311eb3079"},"effectiveDateTime":"2025-01-28T08:00:00.000+00:00","valueQuantity":{"value":0.8}},"request":{"method":"PUT","url":"Observation/5c9a433bb848462383850286"}},{"fullUrl":"Observation/5c9a433bb848462383850288","resource":{"resourceType":"Observation","id":"5c9a433bb848462383850288","meta":{"profile":["http://hl7.org/fhir/us/qicore/StructureDefinition/qicore-observation"]},"status":"final","category":[{"coding":[{"system":"http://terminology.hl7.org/CodeSystem/observation-category","code":"laboratory","display":"laboratory","userSelected":true}]}],"code":{"coding":[{"system":"http://loinc.org","version":"2.73","code":"71484-0"}]},"subject":{"reference":"Patient/68109c29-0e38-4fb1-b994-846311eb3079"},"effectiveDateTime":"2025-01-28T08:29:00.000+00:00","valueQuantity":{"value":0.7}},"request":{"method":"PUT","url":"Observation/5c9a433bb848462383850288"}},{"fullUrl":"Encounter/5c9a433bb848462383850285","resource":{"resourceType":"Encounter","id":"5c9a433bb848462383850285","meta":{"profile":["http://hl7.org/fhir/us/qicore/StructureDefinition/qicore-encounter"]},"status":"finished","class":{"system":"http://terminology.hl7.org/CodeSystem/v3-ActCode","code":"AMB","display":"ambulatory","userSelected":true},"type":[{"coding":[{"system":"http://www.ama-assn.org/go/cpt","version":"2023","code":"99213"}]}],"subject":{"reference":"Patient/68109c29-0e38-4fb1-b994-846311eb3079"},"period":{"start":"2025-01-28T08:00:00.000+00:00","end":"2025-01-28T08:30:00.000+00:00"},"length":{"value":0,"unit":"days"}},"request":{"method":"PUT","url":"Encounter/5c9a433bb848462383850285"}},{"fullUrl":"MeasureReport/605e50d9-cdbf-4845-939f-4109742f6928","resource":{"resourceType":"MeasureReport","id":"605e50d9-cdbf-4845-939f-4109742f6928","meta":{"profile":["http://hl7.org/fhir/us/cqfmeasures/StructureDefinition/test-case-cqfm"]},"contained":[{"resourceType":"Parameters","id":"9dda1907-94c2-4054-9312-415a07df22d2-parameters","parameter":[{"name":"subject","valueString":"68109c29-0e38-4fb1-b994-846311eb3079"}]}],"extension":[{"url":"http://hl7.org/fhir/us/cqfmeasures/StructureDefinition/cqfm-inputParameters","valueReference":{"reference":"#9dda1907-94c2-4054-9312-415a07df22d2-parameters"}},{"url":"http://hl7.org/fhir/us/cqfmeasures/StructureDefinition/cqfm-testCaseDescription","valueMarkdown":"Numerator required optic disc exam occurs 1 minute before end of encounter."}],"modifierExtension":[{"url":"http://hl7.org/fhir/us/cqfmeasures/StructureDefinition/cqfm-isTestCase","valueBoolean":true}],"status":"complete","type":"individual","measure":"Measure/POAGOpticNerveEvaluationFHIR","period":{"start":"2025-01-01","end":"2025-12-31"},"group":[{"population":[{"code":{"coding":[{"system":"http://terminology.hl7.org/CodeSystem/measure-population","code":"initial-population","display":"Initial Population"}]},"count":1},{"code":{"coding":[{"system":"http://terminology.hl7.org/CodeSystem/measure-population","code":"denominator","display":"Denominator"}]},"count":1},{"code":{"coding":[{"system":"http://terminology.hl7.org/CodeSystem/measure-population","code":"denominator-exception","display":"Denominator Exception"}]},"count":0},{"code":{"coding":[{"system":"http://terminology.hl7.org/CodeSystem/measure-population","code":"numerator","display":"Numerator"}]},"count":1}]}],"evaluatedResource":[{"reference":"Patient/68109c29-0e38-4fb1-b994-846311eb3079"},{"reference":"Condition/5e1f9548eab2e700004583ec"},{"reference":"Observation/5c9a433bb848462383850286"},{"reference":"Observation/5c9a433bb848462383850288"},{"reference":"Encounter/5c9a433bb848462383850285"}]},"request":{"method":"PUT","url":"MeasureReport/605e50d9-cdbf-4845-939f-4109742f6928"}}]}