{"resourceType":"Bundle","id":"tests-4bd6b515-515f-4567-b7a5-6e5ea2f02591-bundle","type":"transaction","entry":[{"fullUrl":"https://madie.cms.gov/Patient/4bd6b515-515f-4567-b7a5-6e5ea2f02591","resource":{"resourceType":"Patient","id":"4bd6b515-515f-4567-b7a5-6e5ea2f02591","meta":{"profile":["http://hl7.org/fhir/us/qicore/StructureDefinition/qicore-patient"]},"text":{"status":"generated","div":"<div xmlns=\"http://www.w3.org/1999/xhtml\"><div class=\"hapiHeaderText\">los23hours2, Screened Not at risk Assessed Severely Malnourished Diagnosed Care Plan, <b>mo1111d4p100 </b></div><table class=\"hapiPropertyTable\"><tbody><tr><td>Identifier</td><td>los23hours2</td></tr><tr><td>Date of birth</td><td><span>14 May 1950</span></td></tr></tbody></table></div>"},"extension":[{"url":"http://hl7.org/fhir/us/core/StructureDefinition/us-core-race","extension":[{"url":"ombCategory","valueCoding":{"system":"urn:oid:2.16.840.1.113883.6.238","code":"2106-3","display":"White","userSelected":true}},{"url":"text","valueString":"White"}]},{"url":"http://hl7.org/fhir/us/core/StructureDefinition/us-core-ethnicity","extension":[{"url":"ombCategory","valueCoding":{"system":"urn:oid:2.16.840.1.113883.6.238","code":"2186-5","display":"Not Hispanic or Latino","userSelected":true}},{"url":"text","valueString":"Not Hispanic or Latino"}]}],"identifier":[{"type":{"coding":[{"system":"http://terminology.hl7.org/CodeSystem/v2-0203","code":"MR"}]},"system":"https://madie.cms.gov/","value":"los23hours2"}],"active":true,"name":[{"use":"usual","text":"los23hours2","family":"IPPFAIL","given":["los23hours2IPPFAIL"]}],"gender":"male","birthDate":"1950-05-14","address":[{"text":"los23hours2, Screened Not at risk Assessed Severely Malnourished Diagnosed Care Plan, ID=los23hours2, DOB: 14 May 1950"}]},"request":{"method":"PUT","url":"Patient/4bd6b515-515f-4567-b7a5-6e5ea2f02591"}},{"fullUrl":"https://madie.cms.gov/Encounter/los23hours2-01","resource":{"resourceType":"Encounter","id":"7150bdbc-5aaa-4366-a965-cac86bd44207","meta":{"profile":["http://hl7.org/fhir/us/qicore/StructureDefinition/qicore-encounter"]},"status":"finished","class":{"system":"http://terminology.hl7.org/CodeSystem/v3-ActCode","code":"IMP","display":"inpatient encounter"},"type":[{"coding":[{"system":"http://snomed.info/sct","code":"183452005"}]}],"subject":{"reference":"Patient/4bd6b515-515f-4567-b7a5-6e5ea2f02591"},"period":{"start":"2025-02-01T08:00:00.000Z","end":"2025-02-02T07:15:00.000Z"}},"request":{"method":"PUT","url":"Encounter/7150bdbc-5aaa-4366-a965-cac86bd44207"}},{"fullUrl":"https://madie.cms.gov/Condition/los23hours2-06","resource":{"resourceType":"Condition","id":"ad08058f-568b-467e-98c7-11e8532c1057","meta":{"profile":["http://hl7.org/fhir/us/qicore/StructureDefinition/qicore-condition"]},"clinicalStatus":{"coding":[{"system":"http://terminology.hl7.org/CodeSystem/condition-clinical","code":"active","display":"Active","userSelected":true}]},"verificationStatus":{"coding":[{"system":"http://terminology.hl7.org/CodeSystem/condition-ver-status","code":"confirmed","display":"Confirmed","userSelected":true}]},"category":[{"coding":[{"system":"http://terminology.hl7.org/CodeSystem/condition-category","code":"encounter-diagnosis","display":"Encounter Diagnosis","userSelected":true}]}],"code":{"coding":[{"system":"http://snomed.info/sct","code":"190606006","display":"Moderate protein energy malnutrition (disorder)","userSelected":true}]},"subject":{"reference":"Patient/4bd6b515-515f-4567-b7a5-6e5ea2f02591"},"onsetPeriod":{"start":"2025-02-01T08:00:00.000+00:00"},"recordedDate":"2025-02-01T08:00:00.000+00:00"},"request":{"method":"PUT","url":"Condition/ad08058f-568b-467e-98c7-11e8532c1057"}},{"fullUrl":"https://madie.cms.gov/Observation/los23hours2-18","resource":{"resourceType":"Observation","id":"66d2d4d2-c3b0-46de-b19d-92761773b899","meta":{"profile":["http://hl7.org/fhir/us/qicore/StructureDefinition/qicore-observation"]},"status":"final","category":[{"coding":[{"system":"http://terminology.hl7.org/CodeSystem/observation-category","code":"survey","display":"Survey"}]}],"code":{"coding":[{"system":"http://loinc.org","code":"98967-3","display":"Nutritional Risk Screening 2002 panel","userSelected":true}]},"subject":{"reference":"Patient/4bd6b515-515f-4567-b7a5-6e5ea2f02591"},"effectiveDateTime":"2025-02-01T09:00:00.000+00:00","valueCodeableConcept":{"coding":[{"system":"http://snomed.info/sct","code":"129689002","display":"At risk for nutritional problem (finding)","userSelected":true}]}},"request":{"method":"PUT","url":"Observation/66d2d4d2-c3b0-46de-b19d-92761773b899"}},{"fullUrl":"https://madie.cms.gov/Observation/los23hours2-19","resource":{"resourceType":"Observation","id":"61953366-5019-4f27-abad-470210a8a2f6","meta":{"profile":["http://hl7.org/fhir/us/qicore/StructureDefinition/qicore-observation"]},"status":"final","category":[{"coding":[{"system":"http://terminology.hl7.org/CodeSystem/observation-category","code":"survey","display":"Survey"}]}],"code":{"coding":[{"system":"http://loinc.org","code":"75282-4","display":"Nutrition assessment panel","userSelected":true}]},"subject":{"reference":"Patient/4bd6b515-515f-4567-b7a5-6e5ea2f02591"},"effectiveDateTime":"2025-02-01T10:00:00.000+00:00","valueCodeableConcept":{"coding":[{"system":"http://snomed.info/sct","code":"102635008","display":"Acute nutritional deficiency (finding)","userSelected":true}]}},"request":{"method":"PUT","url":"Observation/61953366-5019-4f27-abad-470210a8a2f6"}},{"fullUrl":"https://madie.cms.gov/Procedure/los23hours2-12","resource":{"resourceType":"Procedure","id":"db5f3f49-0a62-4d22-a064-51c87b8bf5ea","meta":{"profile":["http://hl7.org/fhir/us/qicore/StructureDefinition/qicore-procedure"]},"extension":[{"url":"http://hl7.org/fhir/us/qicore/StructureDefinition/qicore-recorded","valueDateTime":"2025-02-01T08:30:00.000Z"}],"status":"completed","code":{"coding":[{"system":"http://snomed.info/sct","code":"306165000","display":"Referral to hospital-based dietetics service (procedure)"}],"text":"Referral to hospital-based dietetics service (procedure)"},"subject":{"reference":"Patient/4bd6b515-515f-4567-b7a5-6e5ea2f02591"},"encounter":{"reference":"Encounter/los23hours2IPPFAIL"},"performedPeriod":{"start":"2025-02-01T07:30:00.000Z","end":"2025-02-01T08:15:00.000Z"}},"request":{"method":"PUT","url":"Procedure/db5f3f49-0a62-4d22-a064-51c87b8bf5ea"}},{"fullUrl":"https://madie.cms.gov/Procedure/los23hours2-08","resource":{"resourceType":"Procedure","id":"5208385e-f3ae-4d4e-9f82-5345bbcd018f","meta":{"profile":["http://hl7.org/fhir/us/qicore/StructureDefinition/qicore-procedure"]},"extension":[{"url":"http://hl7.org/fhir/us/qicore/StructureDefinition/qicore-recorded","valueDateTime":"2025-02-01T11:30:00.000Z"}],"status":"completed","code":{"coding":[{"system":"http://snomed.info/sct","code":"182922004","display":"Dietary regime (regime/therapy)"}],"text":"Dietary regime (regime/therapy)"},"subject":{"reference":"Patient/4bd6b515-515f-4567-b7a5-6e5ea2f02591"},"encounter":{"reference":"Encounter/los23hours2IPPFAIL"},"performedPeriod":{"start":"2025-02-01T11:30:00.000Z","end":"2025-02-07T08:15:00.000Z"}},"request":{"method":"PUT","url":"Procedure/5208385e-f3ae-4d4e-9f82-5345bbcd018f"}},{"fullUrl":"https://madie.cms.gov/Coverage/los23hours2-61","resource":{"resourceType":"Coverage","id":"790e4700-d369-4699-9688-a4063c8bfaa2","meta":{"profile":["http://hl7.org/fhir/us/qicore/StructureDefinition/qicore-coverage"]},"status":"active","type":{"coding":[{"system":"https://nahdo.org/sopt","version":"9.2","code":"11","display":"Medicare Managed Care (Includes Medicare Advantage Plans)"}]},"beneficiary":{"reference":"Patient/4bd6b515-515f-4567-b7a5-6e5ea2f02591"},"period":{"start":"2024-10-01T00:00:00+00:00"},"payor":[{"reference":"Organization/f6075515-d38f-4624-bde8-a1ce20473a69"}]},"request":{"method":"PUT","url":"Coverage/790e4700-d369-4699-9688-a4063c8bfaa2"}},{"fullUrl":"https://madie.cms.gov/Organization/los23hours2-98","resource":{"resourceType":"Organization","id":"f6075515-d38f-4624-bde8-a1ce20473a69","meta":{"profile":["http://hl7.org/fhir/us/qicore/StructureDefinition/qicore-organization"]},"identifier":[{"use":"temp","system":"urn:oid:2.16.840.1.113883.4.4","value":"21-3259825"}],"active":true,"type":[{"coding":[{"system":"http://terminology.hl7.org/CodeSystem/organization-type","code":"pay","display":"Payer"}]}],"name":"Blue Cross Blue Shield of Texas","telecom":[{"system":"phone","value":"(+1) 972-766-6900"}],"address":[{"use":"billing","type":"postal","line":["P.O. Box 660044"],"city":"Dallas","state":"TX","postalCode":"75266-0044","country":"USA"}]},"request":{"method":"PUT","url":"Organization/f6075515-d38f-4624-bde8-a1ce20473a69"}},{"fullUrl":"https://madie.cms.gov/MeasureReport/2b4e1928-d51f-448c-bab9-1e1216dd96fd","resource":{"resourceType":"MeasureReport","id":"2b4e1928-d51f-448c-bab9-1e1216dd96fd","meta":{"profile":["http://hl7.org/fhir/us/cqfmeasures/StructureDefinition/test-case-cqfm"]},"contained":[{"resourceType":"Parameters","id":"cc3bbe00-cc68-498c-b2f6-5d0f732aaf98-parameters","parameter":[{"name":"subject","valueString":"4bd6b515-515f-4567-b7a5-6e5ea2f02591"}]}],"extension":[{"url":"http://hl7.org/fhir/us/cqfmeasures/StructureDefinition/cqfm-inputParameters","valueReference":{"reference":"#cc3bbe00-cc68-498c-b2f6-5d0f732aaf98-parameters"}}],"modifierExtension":[{"url":"http://hl7.org/fhir/us/cqfmeasures/StructureDefinition/cqfm-isTestCase","valueBoolean":true}],"status":"complete","type":"individual","measure":"https://madie.cms.gov/Measure/GlobalMalnutritionCompositeFHIR","period":{"start":"2026-01-01","end":"2026-12-31"},"group":[{"population":[{"code":{"coding":[{"system":"http://terminology.hl7.org/CodeSystem/measure-population","code":"initial-population","display":"Initial Population"}]},"count":0},{"code":{"coding":[{"system":"http://terminology.hl7.org/CodeSystem/measure-population","code":"measure-population","display":"Measure Population"}]},"count":0}]},{"population":[{"code":{"coding":[{"system":"http://terminology.hl7.org/CodeSystem/measure-population","code":"initial-population","display":"Initial Population"}]},"count":0},{"code":{"coding":[{"system":"http://terminology.hl7.org/CodeSystem/measure-population","code":"measure-population","display":"Measure Population"}]},"count":0}]},{"population":[{"code":{"coding":[{"system":"http://terminology.hl7.org/CodeSystem/measure-population","code":"initial-population","display":"Initial Population"}]},"count":0},{"code":{"coding":[{"system":"http://terminology.hl7.org/CodeSystem/measure-population","code":"measure-population","display":"Measure Population"}]},"count":0}]},{"population":[{"code":{"coding":[{"system":"http://terminology.hl7.org/CodeSystem/measure-population","code":"initial-population","display":"Initial Population"}]},"count":0},{"code":{"coding":[{"system":"http://terminology.hl7.org/CodeSystem/measure-population","code":"measure-population","display":"Measure Population"}]},"count":0}]},{"population":[{"code":{"coding":[{"system":"http://terminology.hl7.org/CodeSystem/measure-population","code":"initial-population","display":"Initial Population"}]},"count":0},{"code":{"coding":[{"system":"http://terminology.hl7.org/CodeSystem/measure-population","code":"measure-population","display":"Measure Population"}]},"count":0}]},{"population":[{"code":{"coding":[{"system":"http://terminology.hl7.org/CodeSystem/measure-population","code":"initial-population","display":"Initial Population"}]},"count":0},{"code":{"coding":[{"system":"http://terminology.hl7.org/CodeSystem/measure-population","code":"measure-population","display":"Measure Population"}]},"count":0}]}]},"request":{"method":"PUT","url":"MeasureReport/2b4e1928-d51f-448c-bab9-1e1216dd96fd"}}]}