{"resourceType":"Bundle","id":"tests-91ebcd41-a1a5-45e0-95fd-e2a2799f4459-bundle","type":"transaction","entry":[{"fullUrl":"https://madie.cms.gov/Patient/91ebcd41-a1a5-45e0-95fd-e2a2799f4459","resource":{"resourceType":"Patient","id":"91ebcd41-a1a5-45e0-95fd-e2a2799f4459","meta":{"profile":["http://hl7.org/fhir/us/qicore/StructureDefinition/qicore-patient"]},"text":{"status":"generated","div":"<div xmlns=\"http://www.w3.org/1999/xhtml\"><div class=\"hapiHeaderText\">EncPriorMP<b>IPPFailPop1</b></div><table class=\"hapiPropertyTable\"><tbody><tr><td>Identifier</td><td>3a32515f77a3f69506b686cae30ab46d</td></tr><tr><td>Date of birth</td><td><span>13 April 1921</span></td></tr></tbody></table></div>"},"extension":[{"url":"http://hl7.org/fhir/us/core/StructureDefinition/us-core-race","extension":[{"url":"ombCategory","valueCoding":{"system":"urn:oid:2.16.840.1.113883.6.238","code":"1002-5","display":"American Indian or Alaska Native","userSelected":true}},{"url":"text","valueString":"American Indian or Alaska Native"}]},{"url":"http://hl7.org/fhir/us/core/StructureDefinition/us-core-ethnicity","extension":[{"url":"ombCategory","valueCoding":{"system":"urn:oid:2.16.840.1.113883.6.238","code":"2135-2","display":"Hispanic or Latino","userSelected":true}},{"url":"text","valueString":"Hispanic or Latino"}]}],"identifier":[{"type":{"coding":[{"system":"http://terminology.hl7.org/CodeSystem/v2-0203","code":"MR"}]},"system":"https://bonnie-fhir.healthit.gov/","value":"62c880ec0111a60120dc220a"}],"active":true,"name":[{"use":"usual","family":"IPPFailPop1","given":["EncPriorMP"]}],"gender":"male","birthDate":"1921-04-13"},"request":{"method":"PUT","url":"Patient/91ebcd41-a1a5-45e0-95fd-e2a2799f4459"}},{"fullUrl":"https://madie.cms.gov/Condition/5ca52603b8484613a555a8e6","resource":{"resourceType":"Condition","id":"5ca52603b8484613a555a8e6","meta":{"profile":["http://hl7.org/fhir/us/qicore/StructureDefinition/qicore-condition"]},"clinicalStatus":{"coding":[{"system":"http://terminology.hl7.org/CodeSystem/condition-clinical","code":"active","display":"active","userSelected":true}]},"verificationStatus":{"coding":[{"system":"http://terminology.hl7.org/CodeSystem/condition-ver-status","code":"confirmed","display":"Confirmed"}]},"category":[{"coding":[{"system":"http://terminology.hl7.org/CodeSystem/condition-category","code":"problem-list-item","display":"Problem List Item"}]}],"code":{"coding":[{"system":"http://hl7.org/fhir/sid/icd-10-cm","code":"C44.229"}]},"subject":{"reference":"Patient/91ebcd41-a1a5-45e0-95fd-e2a2799f4459"},"onsetDateTime":"2020-01-14T10:50:00.000Z"},"request":{"method":"PUT","url":"Condition/5ca52603b8484613a555a8e6"}},{"fullUrl":"https://madie.cms.gov/Encounter/5ca52603b8484613a555a8e7","resource":{"resourceType":"Encounter","id":"5ca52603b8484613a555a8e7","meta":{"profile":["http://hl7.org/fhir/us/qicore/StructureDefinition/qicore-encounter"]},"status":"finished","class":{"system":"http://terminology.hl7.org/CodeSystem/v3-ActCode","code":"AMB","display":"ambulatory","userSelected":true},"type":[{"coding":[{"system":"http://snomed.info/sct","code":"185463005"}]}],"subject":{"reference":"Patient/91ebcd41-a1a5-45e0-95fd-e2a2799f4459"},"period":{"start":"2023-12-29T10:50:00.000Z","end":"2023-12-29T10:50:00.000Z"}},"request":{"method":"PUT","url":"Encounter/5ca52603b8484613a555a8e7"}},{"fullUrl":"https://madie.cms.gov/Coverage/60099ac51c76ba64612b0619","resource":{"resourceType":"Coverage","id":"60099ac51c76ba64612b0619","meta":{"profile":["http://hl7.org/fhir/us/qicore/StructureDefinition/qicore-coverage"]},"status":"active","beneficiary":{"reference":"Patient/91ebcd41-a1a5-45e0-95fd-e2a2799f4459"},"period":{"start":"1921-04-13T08:00:00.000Z"},"payor":[{"reference":"Organization/Org-123456"}]},"request":{"method":"PUT","url":"Coverage/60099ac51c76ba64612b0619"}},{"fullUrl":"https://madie.cms.gov/Procedure/5ca52603b8484613a555a8e8","resource":{"resourceType":"Procedure","id":"5ca52603b8484613a555a8e8","meta":{"profile":["http://hl7.org/fhir/us/qicore/StructureDefinition/qicore-procedure"]},"extension":[{"url":"http://hl7.org/fhir/us/qicore/StructureDefinition/qicore-recorded","valueDateTime":"2023-12-27T10:35:00.000Z"}],"status":"completed","code":{"coding":[{"system":"http://www.ama-assn.org/go/cpt","code":"96405"}]},"subject":{"reference":"Patient/91ebcd41-a1a5-45e0-95fd-e2a2799f4459"},"performedPeriod":{"start":"2023-12-27T10:30:00.000Z","end":"2023-12-27T10:30:00.000Z"}},"request":{"method":"PUT","url":"Procedure/5ca52603b8484613a555a8e8"}},{"fullUrl":"https://madie.cms.gov/Procedure/5ca52603b8484613a555a8e9","resource":{"resourceType":"Procedure","id":"5ca52603b8484613a555a8e9","meta":{"profile":["http://hl7.org/fhir/us/qicore/StructureDefinition/qicore-procedure"]},"extension":[{"url":"http://hl7.org/fhir/us/qicore/StructureDefinition/qicore-recorded","valueDateTime":"2025-01-15T12:50:00.000Z"}],"status":"completed","code":{"coding":[{"system":"http://www.ama-assn.org/go/cpt","code":"96405"}]},"subject":{"reference":"Patient/91ebcd41-a1a5-45e0-95fd-e2a2799f4459"},"performedPeriod":{"start":"2025-01-15T12:45:00.000Z","end":"2025-01-15T12:45:00.000Z"}},"request":{"method":"PUT","url":"Procedure/5ca52603b8484613a555a8e9"}},{"fullUrl":"https://madie.cms.gov/Organization/123456","resource":{"resourceType":"Organization","id":"Org-123456","meta":{"profile":["http://hl7.org/fhir/us/qicore/StructureDefinition/qicore-organization"]},"identifier":[{"use":"temp","system":"urn:oid:2.16.840.1.113883.4.4","value":"21-3259825"}],"active":true,"type":[{"coding":[{"system":"http://terminology.hl7.org/CodeSystem/organization-type","code":"pay","display":"Payer"}]}],"name":"Blue Cross Blue Shield of Texas","telecom":[{"system":"phone","value":"(+1) 972-766-6900"}],"address":[{"use":"billing","type":"postal","line":["P.O. Box 660044"],"city":"Dallas","state":"TX","postalCode":"75266-0044","country":"USA"}]},"request":{"method":"PUT","url":"Organization/Org-123456"}},{"fullUrl":"https://madie.cms.gov/Practitioner/practitioner-123456","resource":{"resourceType":"Practitioner","id":"practitioner-123456","meta":{"profile":["http://hl7.org/fhir/us/qicore/StructureDefinition/qicore-practitioner"]},"identifier":[{"system":"http://hl7.org/fhir/sid/us-npi","value":"123456"}],"name":[{"family":"Evil","prefix":["Dr"]}]},"request":{"method":"PUT","url":"Practitioner/practitioner-123456"}},{"fullUrl":"https://madie.cms.gov/MeasureReport/729fff2e-8f34-4fdc-9a6c-6c3e19984763","resource":{"resourceType":"MeasureReport","id":"729fff2e-8f34-4fdc-9a6c-6c3e19984763","meta":{"profile":["http://hl7.org/fhir/us/cqfmeasures/StructureDefinition/test-case-cqfm"]},"contained":[{"resourceType":"Parameters","id":"3d22b9e5-cf93-4971-a58c-1614b07149b9-parameters","parameter":[{"name":"subject","valueString":"91ebcd41-a1a5-45e0-95fd-e2a2799f4459"}]}],"extension":[{"url":"http://hl7.org/fhir/us/cqfmeasures/StructureDefinition/cqfm-inputParameters","valueReference":{"reference":"#3d22b9e5-cf93-4971-a58c-1614b07149b9-parameters"}},{"url":"http://hl7.org/fhir/us/cqfmeasures/StructureDefinition/cqfm-testCaseDescription","valueMarkdown":"Patient with cancer diagnosis that overlaps the office visit. Office visit occurs prior to the measurement period. \n"}],"modifierExtension":[{"url":"http://hl7.org/fhir/us/cqfmeasures/StructureDefinition/cqfm-isTestCase","valueBoolean":true}],"status":"complete","type":"individual","measure":"https://madie.cms.gov/Measure/OncologyPainIntensityQuantifiedFHIR","period":{"start":"2025-01-01","end":"2025-12-31"},"group":[{"population":[{"code":{"coding":[{"system":"http://terminology.hl7.org/CodeSystem/measure-population","code":"initial-population","display":"Initial Population"}]},"count":0},{"code":{"coding":[{"system":"http://terminology.hl7.org/CodeSystem/measure-population","code":"denominator","display":"Denominator"}]},"count":0},{"code":{"coding":[{"system":"http://terminology.hl7.org/CodeSystem/measure-population","code":"numerator","display":"Numerator"}]},"count":0}]},{"population":[{"code":{"coding":[{"system":"http://terminology.hl7.org/CodeSystem/measure-population","code":"initial-population","display":"Initial Population"}]},"count":0},{"code":{"coding":[{"system":"http://terminology.hl7.org/CodeSystem/measure-population","code":"denominator","display":"Denominator"}]},"count":0},{"code":{"coding":[{"system":"http://terminology.hl7.org/CodeSystem/measure-population","code":"numerator","display":"Numerator"}]},"count":0}]}],"evaluatedResource":[{"reference":"Patient/91ebcd41-a1a5-45e0-95fd-e2a2799f4459"},{"reference":"Condition/5ca52603b8484613a555a8e6"},{"reference":"Encounter/5ca52603b8484613a555a8e7"},{"reference":"Coverage/60099ac51c76ba64612b0619"},{"reference":"Procedure/5ca52603b8484613a555a8e8"},{"reference":"Procedure/5ca52603b8484613a555a8e9"},{"reference":"Organization/Org-123456"},{"reference":"Practitioner/practitioner-123456"}]},"request":{"method":"PUT","url":"MeasureReport/729fff2e-8f34-4fdc-9a6c-6c3e19984763"}}]}