{"resourceType":"Bundle","id":"tests-a6620e07-4eac-4f5c-afb4-3e5e43cb1bf4-bundle","type":"transaction","entry":[{"fullUrl":"https://madie.cms.gov/Patient/a6620e07-4eac-4f5c-afb4-3e5e43cb1bf4","resource":{"resourceType":"Patient","id":"a6620e07-4eac-4f5c-afb4-3e5e43cb1bf4","meta":{"profile":["http://hl7.org/fhir/us/qicore/StructureDefinition/qicore-patient"]},"text":{"status":"generated","div":"<div xmlns=\"http://www.w3.org/1999/xhtml\"><div class=\"hapiHeaderText\">CancerDxInvalidCode<b>DENOMFailPop2</b></div><table class=\"hapiPropertyTable\"><tbody><tr><td>Date of birth</td><td><span>04 March 1978</span></td></tr></tbody></table></div>"},"extension":[{"url":"http://hl7.org/fhir/us/core/StructureDefinition/us-core-race","extension":[{"url":"ombCategory","valueCoding":{"system":"urn:oid:2.16.840.1.113883.6.238","code":"1002-5","display":"American Indian or Alaska Native","userSelected":true}},{"url":"text","valueString":"American Indian or Alaska Native"}]},{"url":"http://hl7.org/fhir/us/core/StructureDefinition/us-core-ethnicity","extension":[{"url":"ombCategory","valueCoding":{"system":"urn:oid:2.16.840.1.113883.6.238","code":"2135-2","display":"Hispanic or Latino","userSelected":true}},{"url":"text","valueString":"Hispanic or Latino"}]}],"identifier":[{"type":{"coding":[{"system":"http://terminology.hl7.org/CodeSystem/v2-0203","code":"MR"}]},"system":"https://bonnie-fhir.healthit.gov/","value":"62c880ec0111a60120dc21ed"}],"active":true,"name":[{"use":"usual","family":"DENOMFailPop2","given":["CancerDxInvalidCode"]}],"gender":"female","birthDate":"1978-03-04"},"request":{"method":"PUT","url":"Patient/a6620e07-4eac-4f5c-afb4-3e5e43cb1bf4"}},{"fullUrl":"https://madie.cms.gov/Condition/5e41aa14a9c22a0000b32084","resource":{"resourceType":"Condition","id":"5e41aa14a9c22a0000b32084","meta":{"profile":["http://hl7.org/fhir/us/qicore/StructureDefinition/qicore-condition"]},"clinicalStatus":{"coding":[{"system":"http://terminology.hl7.org/CodeSystem/condition-clinical","code":"inactive","display":"inactive"}]},"verificationStatus":{"coding":[{"system":"http://terminology.hl7.org/CodeSystem/condition-ver-status","code":"confirmed","display":"confirmed"}]},"category":[{"coding":[{"system":"http://terminology.hl7.org/CodeSystem/condition-category","code":"problem-list-item","display":"Problem List Item"}]}],"code":{"coding":[{"system":"http://snomed.info/sct","code":"000000"}]},"subject":{"reference":"Patient/a6620e07-4eac-4f5c-afb4-3e5e43cb1bf4"},"onsetDateTime":"2025-02-10T08:00:00.000Z","abatementDateTime":"2025-02-10T08:15:00.000Z"},"request":{"method":"PUT","url":"Condition/5e41aa14a9c22a0000b32084"}},{"fullUrl":"https://madie.cms.gov/Coverage/60099acb1c76ba64612b0697","resource":{"resourceType":"Coverage","id":"60099acb1c76ba64612b0697","meta":{"profile":["http://hl7.org/fhir/us/qicore/StructureDefinition/qicore-coverage"]},"status":"active","beneficiary":{"reference":"Patient/a6620e07-4eac-4f5c-afb4-3e5e43cb1bf4"},"period":{"start":"1978-03-04T08:00:00.000Z"},"payor":[{"reference":"Organization/Org-123456"}]},"request":{"method":"PUT","url":"Coverage/60099acb1c76ba64612b0697"}},{"fullUrl":"https://madie.cms.gov/Encounter/5e41aa06a9c22a0000b32067","resource":{"resourceType":"Encounter","id":"5e41aa06a9c22a0000b32067","meta":{"profile":["http://hl7.org/fhir/us/qicore/StructureDefinition/qicore-encounter"]},"status":"finished","class":{"system":"http://terminology.hl7.org/CodeSystem/v3-ActCode","code":"AMB","display":"ambulatory","userSelected":true},"type":[{"coding":[{"system":"http://www.ama-assn.org/go/cpt","code":"77427"}]}],"subject":{"reference":"Patient/a6620e07-4eac-4f5c-afb4-3e5e43cb1bf4"},"period":{"start":"2025-02-10T08:00:00.000Z","end":"2025-02-10T08:15:00.000Z"}},"request":{"method":"PUT","url":"Encounter/5e41aa06a9c22a0000b32067"}},{"fullUrl":"https://madie.cms.gov/Organization/123456","resource":{"resourceType":"Organization","id":"Org-123456","meta":{"profile":["http://hl7.org/fhir/us/qicore/StructureDefinition/qicore-organization"]},"identifier":[{"use":"temp","system":"urn:oid:2.16.840.1.113883.4.4","value":"21-3259825"}],"active":true,"type":[{"coding":[{"system":"http://terminology.hl7.org/CodeSystem/organization-type","code":"pay","display":"Payer"}]}],"name":"Blue Cross Blue Shield of Texas","telecom":[{"system":"phone","value":"(+1) 972-766-6900"}],"address":[{"use":"billing","type":"postal","line":["P.O. Box 660044"],"city":"Dallas","state":"TX","postalCode":"75266-0044","country":"USA"}]},"request":{"method":"PUT","url":"Organization/Org-123456"}},{"fullUrl":"https://madie.cms.gov/Practitioner/practitioner-123456","resource":{"resourceType":"Practitioner","id":"practitioner-123456","meta":{"profile":["http://hl7.org/fhir/us/qicore/StructureDefinition/qicore-practitioner"]},"identifier":[{"system":"http://hl7.org/fhir/sid/us-npi","value":"123456"}],"name":[{"family":"Evil","prefix":["Dr"]}]},"request":{"method":"PUT","url":"Practitioner/practitioner-123456"}},{"fullUrl":"https://madie.cms.gov/MeasureReport/d930b567-52ca-4f23-a8f8-844a3783b502","resource":{"resourceType":"MeasureReport","id":"d930b567-52ca-4f23-a8f8-844a3783b502","meta":{"profile":["http://hl7.org/fhir/us/cqfmeasures/StructureDefinition/test-case-cqfm"]},"contained":[{"resourceType":"Parameters","id":"b465db46-87d9-4da3-abef-49286d50c10d-parameters","parameter":[{"name":"subject","valueString":"a6620e07-4eac-4f5c-afb4-3e5e43cb1bf4"}]}],"extension":[{"url":"http://hl7.org/fhir/us/cqfmeasures/StructureDefinition/cqfm-inputParameters","valueReference":{"reference":"#b465db46-87d9-4da3-abef-49286d50c10d-parameters"}},{"url":"http://hl7.org/fhir/us/cqfmeasures/StructureDefinition/cqfm-testCaseDescription","valueMarkdown":"Cancer diagnosis code used is invalid or custom code.\n"}],"modifierExtension":[{"url":"http://hl7.org/fhir/us/cqfmeasures/StructureDefinition/cqfm-isTestCase","valueBoolean":true}],"status":"complete","type":"individual","measure":"https://madie.cms.gov/Measure/OncologyPainIntensityQuantifiedFHIR","period":{"start":"2025-01-01","end":"2025-12-31"},"group":[{"population":[{"code":{"coding":[{"system":"http://terminology.hl7.org/CodeSystem/measure-population","code":"initial-population","display":"Initial Population"}]},"count":0},{"code":{"coding":[{"system":"http://terminology.hl7.org/CodeSystem/measure-population","code":"denominator","display":"Denominator"}]},"count":0},{"code":{"coding":[{"system":"http://terminology.hl7.org/CodeSystem/measure-population","code":"numerator","display":"Numerator"}]},"count":0}]},{"population":[{"code":{"coding":[{"system":"http://terminology.hl7.org/CodeSystem/measure-population","code":"initial-population","display":"Initial Population"}]},"count":0},{"code":{"coding":[{"system":"http://terminology.hl7.org/CodeSystem/measure-population","code":"denominator","display":"Denominator"}]},"count":0},{"code":{"coding":[{"system":"http://terminology.hl7.org/CodeSystem/measure-population","code":"numerator","display":"Numerator"}]},"count":0}]}],"evaluatedResource":[{"reference":"Patient/a6620e07-4eac-4f5c-afb4-3e5e43cb1bf4"},{"reference":"Condition/5e41aa14a9c22a0000b32084"},{"reference":"Coverage/60099acb1c76ba64612b0697"},{"reference":"Encounter/5e41aa06a9c22a0000b32067"},{"reference":"Organization/Org-123456"},{"reference":"Practitioner/practitioner-123456"}]},"request":{"method":"PUT","url":"MeasureReport/d930b567-52ca-4f23-a8f8-844a3783b502"}}]}