{"resourceType":"Bundle","id":"tests-5cca62ff-f856-4b8f-9902-6a018a4599cb-bundle","type":"transaction","entry":[{"fullUrl":"https://madie.cms.gov/Patient/5cca62ff-f856-4b8f-9902-6a018a4599cb","resource":{"resourceType":"Patient","id":"5cca62ff-f856-4b8f-9902-6a018a4599cb","meta":{"profile":["http://hl7.org/fhir/us/qicore/StructureDefinition/qicore-patient"]},"text":{"status":"generated","div":"<div xmlns=\"http://www.w3.org/1999/xhtml\"><div class=\"hapiHeaderText\">MultEp1Num1Den2<b>NUMERPASSPOP2</b></div><table class=\"hapiPropertyTable\"><tbody><tr><td>Identifier</td><td>e71f20f74cac252e764ff3e7f28f908aff2729f7da5e71eb2d3419b296c3bd12</td></tr><tr><td>Date of birth</td><td><span>13 May 1932</span></td></tr></tbody></table></div>"},"extension":[{"url":"http://hl7.org/fhir/us/core/StructureDefinition/us-core-race","extension":[{"url":"ombCategory","valueCoding":{"system":"urn:oid:2.16.840.1.113883.6.238","code":"1002-5","display":"American Indian or Alaska Native","userSelected":true}},{"url":"text","valueString":"American Indian or Alaska Native"}]},{"url":"http://hl7.org/fhir/us/core/StructureDefinition/us-core-ethnicity","extension":[{"url":"ombCategory","valueCoding":{"system":"urn:oid:2.16.840.1.113883.6.238","code":"2135-2","display":"Hispanic or Latino","userSelected":true}},{"url":"text","valueString":"Hispanic or Latino"}]}],"identifier":[{"type":{"coding":[{"system":"http://terminology.hl7.org/CodeSystem/v2-0203","code":"MR"}]},"system":"https://bonnie-fhir.healthit.gov/","value":"62c880ec0111a60120dc2211"}],"active":true,"name":[{"use":"usual","family":"NUMERPassPop2","given":["MultEp1Num1Den2"]}],"gender":"female","birthDate":"1932-05-13"},"request":{"method":"PUT","url":"Patient/5cca62ff-f856-4b8f-9902-6a018a4599cb"}},{"fullUrl":"https://madie.cms.gov/Observation/5ca52609b8484613a555a942","resource":{"resourceType":"Observation","id":"5ca52609b8484613a555a942","meta":{"profile":["http://hl7.org/fhir/us/qicore/StructureDefinition/qicore-observation"]},"status":"final","category":[{"coding":[{"system":"http://terminology.hl7.org/CodeSystem/observation-category","code":"survey","display":"Survey"}],"text":"Survey"}],"code":{"coding":[{"system":"http://loinc.org","code":"38208-5","display":"Pain severity - Reported"}],"text":"Pain severity - Reported"},"subject":{"reference":"Patient/5cca62ff-f856-4b8f-9902-6a018a4599cb"},"effectiveDateTime":"2025-03-05T09:00:00.000+00:00","valueInteger":5},"request":{"method":"PUT","url":"Observation/5ca52609b8484613a555a942"}},{"fullUrl":"https://madie.cms.gov/Condition/5ca52609b8484613a555a93f","resource":{"resourceType":"Condition","id":"5ca52609b8484613a555a93f","meta":{"profile":["http://hl7.org/fhir/us/qicore/StructureDefinition/qicore-condition"]},"clinicalStatus":{"coding":[{"system":"http://terminology.hl7.org/CodeSystem/condition-clinical","code":"active","display":"active","userSelected":true}]},"verificationStatus":{"coding":[{"system":"http://terminology.hl7.org/CodeSystem/condition-ver-status","code":"confirmed","display":"Confirmed"}]},"category":[{"coding":[{"system":"http://terminology.hl7.org/CodeSystem/condition-category","code":"problem-list-item","display":"Problem List Item"}]}],"code":{"coding":[{"system":"http://hl7.org/fhir/sid/icd-10-cm","code":"C00.3"}]},"subject":{"reference":"Patient/5cca62ff-f856-4b8f-9902-6a018a4599cb"},"onsetDateTime":"2023-11-01T13:30:00.000Z"},"request":{"method":"PUT","url":"Condition/5ca52609b8484613a555a93f"}},{"fullUrl":"https://madie.cms.gov/Coverage/60099aca1c76ba64612b0688","resource":{"resourceType":"Coverage","id":"60099aca1c76ba64612b0688","meta":{"profile":["http://hl7.org/fhir/us/qicore/StructureDefinition/qicore-coverage"]},"status":"active","beneficiary":{"reference":"Patient/5cca62ff-f856-4b8f-9902-6a018a4599cb"},"period":{"start":"1932-05-13T08:00:00.000Z"},"payor":[{"reference":"Organization/Org-123456"}]},"request":{"method":"PUT","url":"Coverage/60099aca1c76ba64612b0688"}},{"fullUrl":"https://madie.cms.gov/Encounter/radiation-treatment-management-5-treatments-7c15","resource":{"resourceType":"Encounter","id":"radiation-treatment-management-5-treatments-7c15","meta":{"profile":["http://hl7.org/fhir/us/qicore/StructureDefinition/qicore-encounter"]},"status":"finished","class":{"system":"http://terminology.hl7.org/CodeSystem/v3-ActCode","code":"AMB","display":"ambulatory","userSelected":true},"type":[{"coding":[{"system":"http://www.ama-assn.org/go/cpt","code":"77432","userSelected":true}]}],"subject":{"reference":"Patient/5cca62ff-f856-4b8f-9902-6a018a4599cb"},"period":{"start":"2025-03-05T08:00:00.000+00:00","end":"2025-03-05T10:00:00.000+00:00"}},"request":{"method":"PUT","url":"Encounter/radiation-treatment-management-5-treatments-7c15"}},{"fullUrl":"https://madie.cms.gov/Encounter/radiation-treatment-management-7c16","resource":{"resourceType":"Encounter","id":"radiation-treatment-management-7c16","meta":{"profile":["http://hl7.org/fhir/us/qicore/StructureDefinition/qicore-encounter"]},"status":"finished","class":{"system":"http://terminology.hl7.org/CodeSystem/v3-ActCode","code":"AMB","display":"ambulatory","userSelected":true},"type":[{"coding":[{"system":"http://www.ama-assn.org/go/cpt","version":"2023","code":"77432","userSelected":true}]}],"subject":{"reference":"Patient/5cca62ff-f856-4b8f-9902-6a018a4599cb"},"period":{"start":"2025-08-30T14:00:00.000+00:00","end":"2025-08-30T16:00:00.000+00:00"}},"request":{"method":"PUT","url":"Encounter/radiation-treatment-management-7c16"}},{"fullUrl":"https://madie.cms.gov/Organization/123456","resource":{"resourceType":"Organization","id":"Org-123456","meta":{"profile":["http://hl7.org/fhir/us/qicore/StructureDefinition/qicore-organization"]},"identifier":[{"use":"temp","system":"urn:oid:2.16.840.1.113883.4.4","value":"21-3259825"}],"active":true,"type":[{"coding":[{"system":"http://terminology.hl7.org/CodeSystem/organization-type","code":"pay","display":"Payer"}]}],"name":"Blue Cross Blue Shield of Texas","telecom":[{"system":"phone","value":"(+1) 972-766-6900"}],"address":[{"use":"billing","type":"postal","line":["P.O. Box 660044"],"city":"Dallas","state":"TX","postalCode":"75266-0044","country":"USA"}]},"request":{"method":"PUT","url":"Organization/Org-123456"}},{"fullUrl":"https://madie.cms.gov/Practitioner/practitioner-123456","resource":{"resourceType":"Practitioner","id":"practitioner-123456","meta":{"profile":["http://hl7.org/fhir/us/qicore/StructureDefinition/qicore-practitioner"]},"identifier":[{"system":"http://hl7.org/fhir/sid/us-npi","value":"123456"}],"name":[{"family":"Evil","prefix":["Dr"]}]},"request":{"method":"PUT","url":"Practitioner/practitioner-123456"}},{"fullUrl":"https://madie.cms.gov/MeasureReport/aa8f5d6b-c282-4618-bbc5-68e48db90501","resource":{"resourceType":"MeasureReport","id":"aa8f5d6b-c282-4618-bbc5-68e48db90501","meta":{"profile":["http://hl7.org/fhir/us/cqfmeasures/StructureDefinition/test-case-cqfm"]},"contained":[{"resourceType":"Parameters","id":"9c1c5399-8bb7-4af0-92a0-1ec80d30be2a-parameters","parameter":[{"name":"subject","valueString":"5cca62ff-f856-4b8f-9902-6a018a4599cb"}]}],"extension":[{"url":"http://hl7.org/fhir/us/cqfmeasures/StructureDefinition/cqfm-inputParameters","valueReference":{"reference":"#9c1c5399-8bb7-4af0-92a0-1ec80d30be2a-parameters"}},{"url":"http://hl7.org/fhir/us/cqfmeasures/StructureDefinition/cqfm-testCaseDescription","valueMarkdown":"Patient with cancer diagnosis that overlaps radiation treatment mgt. Pain intensity assessment was performed during radiation treatment management encounter. 2 episodes of care, but no pain assessment was done on 2nd radiation treatment management.\n"}],"modifierExtension":[{"url":"http://hl7.org/fhir/us/cqfmeasures/StructureDefinition/cqfm-isTestCase","valueBoolean":true}],"status":"complete","type":"individual","measure":"https://madie.cms.gov/Measure/OncologyPainIntensityQuantifiedFHIR","period":{"start":"2025-01-01","end":"2025-12-31"},"group":[{"population":[{"code":{"coding":[{"system":"http://terminology.hl7.org/CodeSystem/measure-population","code":"initial-population","display":"Initial Population"}]},"count":0},{"code":{"coding":[{"system":"http://terminology.hl7.org/CodeSystem/measure-population","code":"denominator","display":"Denominator"}]},"count":0},{"code":{"coding":[{"system":"http://terminology.hl7.org/CodeSystem/measure-population","code":"numerator","display":"Numerator"}]},"count":0}]},{"population":[{"code":{"coding":[{"system":"http://terminology.hl7.org/CodeSystem/measure-population","code":"initial-population","display":"Initial Population"}]},"count":2},{"code":{"coding":[{"system":"http://terminology.hl7.org/CodeSystem/measure-population","code":"denominator","display":"Denominator"}]},"count":2},{"code":{"coding":[{"system":"http://terminology.hl7.org/CodeSystem/measure-population","code":"numerator","display":"Numerator"}]},"count":1}]}],"evaluatedResource":[{"reference":"Patient/5cca62ff-f856-4b8f-9902-6a018a4599cb"},{"reference":"Observation/5ca52609b8484613a555a942"},{"reference":"Condition/5ca52609b8484613a555a93f"},{"reference":"Coverage/60099aca1c76ba64612b0688"},{"reference":"Encounter/radiation-treatment-management-5-treatments-7c15"},{"reference":"Encounter/radiation-treatment-management-7c16"},{"reference":"Organization/Org-123456"},{"reference":"Practitioner/practitioner-123456"}]},"request":{"method":"PUT","url":"MeasureReport/aa8f5d6b-c282-4618-bbc5-68e48db90501"}}]}