{"resourceType":"Bundle","id":"tests-9a55bc28-43ac-4af0-8fc6-833acf9776e0-bundle","type":"transaction","entry":[{"fullUrl":"https://madie.cms.gov/Patient/9a55bc28-43ac-4af0-8fc6-833acf9776e0","resource":{"resourceType":"Patient","id":"9a55bc28-43ac-4af0-8fc6-833acf9776e0","meta":{"profile":["http://hl7.org/fhir/us/qicore/StructureDefinition/qicore-patient"]},"text":{"status":"generated","div":"<div xmlns=\"http://www.w3.org/1999/xhtml\"><div class=\"hapiHeaderText\">OV&amp;ChemoNoPainAssess<b>NUMERFAILPOP1</b></div><table class=\"hapiPropertyTable\"><tbody><tr><td>Identifier</td><td>478f763041c33091d5d812e99efd9a27</td></tr><tr><td>Date of birth</td><td><span>24 March 1986</span></td></tr></tbody></table></div>"},"extension":[{"url":"http://hl7.org/fhir/us/core/StructureDefinition/us-core-race","extension":[{"url":"ombCategory","valueCoding":{"system":"urn:oid:2.16.840.1.113883.6.238","code":"1002-5","display":"American Indian or Alaska Native","userSelected":true}},{"url":"text","valueString":"American Indian or Alaska Native"}]},{"url":"http://hl7.org/fhir/us/core/StructureDefinition/us-core-ethnicity","extension":[{"url":"ombCategory","valueCoding":{"system":"urn:oid:2.16.840.1.113883.6.238","code":"2135-2","display":"Hispanic or Latino","userSelected":true}},{"url":"text","valueString":"Hispanic or Latino"}]}],"identifier":[{"type":{"coding":[{"system":"http://terminology.hl7.org/CodeSystem/v2-0203","code":"MR"}]},"system":"https://bonnie-fhir.healthit.gov/","value":"62c880ed0111a60120dc2223"}],"active":true,"name":[{"use":"usual","family":"NUMERFailPop1","given":["OV&ChemoNoPainAssess"]}],"gender":"female","birthDate":"1986-03-24"},"request":{"method":"PUT","url":"Patient/9a55bc28-43ac-4af0-8fc6-833acf9776e0"}},{"fullUrl":"https://madie.cms.gov/Condition/5ca52605b8484613a555a90e","resource":{"resourceType":"Condition","id":"c5b25e01-0560-4b91-b4cf-cc2871d284b7","meta":{"profile":["http://hl7.org/fhir/us/qicore/StructureDefinition/qicore-condition"]},"clinicalStatus":{"coding":[{"system":"http://terminology.hl7.org/CodeSystem/condition-clinical","code":"active","display":"active","userSelected":true}]},"verificationStatus":{"coding":[{"system":"http://terminology.hl7.org/CodeSystem/condition-ver-status","code":"confirmed","display":"Confirmed"}]},"category":[{"coding":[{"system":"http://terminology.hl7.org/CodeSystem/condition-category","code":"problem-list-item","display":"Problem List Item"}]}],"code":{"coding":[{"system":"http://snomed.info/sct","code":"107691000119101"}]},"subject":{"reference":"Patient/9a55bc28-43ac-4af0-8fc6-833acf9776e0"},"onsetDateTime":"2020-02-15T10:00:00.000Z"},"request":{"method":"PUT","url":"Condition/c5b25e01-0560-4b91-b4cf-cc2871d284b7"}},{"fullUrl":"https://madie.cms.gov/Condition/5ca52605b8484613a555a90f","resource":{"resourceType":"Condition","id":"078a0467-6e7c-468e-a2e9-68c0c2f3be7f","meta":{"profile":["http://hl7.org/fhir/us/qicore/StructureDefinition/qicore-condition"]},"clinicalStatus":{"coding":[{"system":"http://terminology.hl7.org/CodeSystem/condition-clinical","code":"active","display":"active","userSelected":true}]},"verificationStatus":{"coding":[{"system":"http://terminology.hl7.org/CodeSystem/condition-ver-status","code":"confirmed","display":"Confirmed"}]},"category":[{"coding":[{"system":"http://terminology.hl7.org/CodeSystem/condition-category","code":"problem-list-item","display":"Problem List Item"}]}],"code":{"coding":[{"system":"http://hl7.org/fhir/sid/icd-10-cm","code":"C00.0"}]},"subject":{"reference":"Patient/9a55bc28-43ac-4af0-8fc6-833acf9776e0"},"onsetDateTime":"2020-11-24T08:00:00.000Z"},"request":{"method":"PUT","url":"Condition/078a0467-6e7c-468e-a2e9-68c0c2f3be7f"}},{"fullUrl":"https://madie.cms.gov/Encounter/5ca52605b8484613a555a910","resource":{"resourceType":"Encounter","id":"ed49d788-dd97-4727-98ba-0ca89eb33ecc","meta":{"profile":["http://hl7.org/fhir/us/qicore/StructureDefinition/qicore-encounter"]},"status":"finished","class":{"system":"http://terminology.hl7.org/CodeSystem/v3-ActCode","code":"AMB","display":"ambulatory","userSelected":true},"type":[{"coding":[{"system":"http://www.ama-assn.org/go/cpt","code":"99213"}]}],"subject":{"reference":"Patient/9a55bc28-43ac-4af0-8fc6-833acf9776e0"},"period":{"start":"2025-07-15T16:00:00.000Z","end":"2025-07-15T16:00:00.000Z"}},"request":{"method":"PUT","url":"Encounter/ed49d788-dd97-4727-98ba-0ca89eb33ecc"}},{"fullUrl":"https://madie.cms.gov/Coverage/60099ac61c76ba64612b0640","resource":{"resourceType":"Coverage","id":"4566c54f-5447-4e05-a285-8b54c14ab860","meta":{"profile":["http://hl7.org/fhir/us/qicore/StructureDefinition/qicore-coverage"]},"status":"active","beneficiary":{"reference":"Patient/9a55bc28-43ac-4af0-8fc6-833acf9776e0"},"period":{"start":"1986-03-24T08:00:00.000Z"},"payor":[{"reference":"Organization/880a275e-1cf2-4fb9-869b-f1d2173fdc2b"}]},"request":{"method":"PUT","url":"Coverage/4566c54f-5447-4e05-a285-8b54c14ab860"}},{"fullUrl":"https://madie.cms.gov/Procedure/5ca52605b8484613a555a911","resource":{"resourceType":"Procedure","id":"bc1fa23f-dbb1-4141-a7e3-ca0159db3415","meta":{"profile":["http://hl7.org/fhir/us/qicore/StructureDefinition/qicore-procedure"]},"extension":[{"url":"http://hl7.org/fhir/us/qicore/StructureDefinition/qicore-recorded","valueDateTime":"2025-06-16T12:35:00.000Z"}],"status":"completed","code":{"coding":[{"system":"http://www.ama-assn.org/go/cpt","code":"96409"}]},"subject":{"reference":"Patient/9a55bc28-43ac-4af0-8fc6-833acf9776e0"},"performedPeriod":{"start":"2025-06-16T14:45:00.000Z","end":"2025-06-16T15:45:00.000Z"}},"request":{"method":"PUT","url":"Procedure/bc1fa23f-dbb1-4141-a7e3-ca0159db3415"}},{"fullUrl":"https://madie.cms.gov/Procedure/5ca52605b8484613a555a912","resource":{"resourceType":"Procedure","id":"42933034-cfe3-4ceb-a320-4823b963b591","meta":{"profile":["http://hl7.org/fhir/us/qicore/StructureDefinition/qicore-procedure"]},"extension":[{"url":"http://hl7.org/fhir/us/qicore/StructureDefinition/qicore-recorded","valueDateTime":"2025-08-12T12:35:00.000Z"}],"status":"completed","code":{"coding":[{"system":"http://www.ama-assn.org/go/cpt","code":"96409"}]},"subject":{"reference":"Patient/9a55bc28-43ac-4af0-8fc6-833acf9776e0"},"performedPeriod":{"start":"2025-08-12T14:00:00.000Z","end":"2025-08-12T14:00:00.000Z"}},"request":{"method":"PUT","url":"Procedure/42933034-cfe3-4ceb-a320-4823b963b591"}},{"fullUrl":"https://madie.cms.gov/Organization/123456","resource":{"resourceType":"Organization","id":"880a275e-1cf2-4fb9-869b-f1d2173fdc2b","meta":{"profile":["http://hl7.org/fhir/us/qicore/StructureDefinition/qicore-organization"]},"identifier":[{"use":"temp","system":"urn:oid:2.16.840.1.113883.4.4","value":"21-3259825"}],"active":true,"type":[{"coding":[{"system":"http://terminology.hl7.org/CodeSystem/organization-type","code":"pay","display":"Payer"}]}],"name":"Blue Cross Blue Shield of Texas","telecom":[{"system":"phone","value":"(+1) 972-766-6900"}],"address":[{"use":"billing","type":"postal","line":["P.O. Box 660044"],"city":"Dallas","state":"TX","postalCode":"75266-0044","country":"USA"}]},"request":{"method":"PUT","url":"Organization/880a275e-1cf2-4fb9-869b-f1d2173fdc2b"}},{"fullUrl":"https://madie.cms.gov/Practitioner/practitioner-123456","resource":{"resourceType":"Practitioner","id":"6a5a1aee-5759-40e8-8859-a0c86cfaf8a2","meta":{"profile":["http://hl7.org/fhir/us/qicore/StructureDefinition/qicore-practitioner"]},"identifier":[{"system":"http://hl7.org/fhir/sid/us-npi","value":"123456"}],"name":[{"family":"Evil","prefix":["Dr"]}]},"request":{"method":"PUT","url":"Practitioner/6a5a1aee-5759-40e8-8859-a0c86cfaf8a2"}},{"fullUrl":"https://madie.cms.gov/MeasureReport/b34d532b-d746-4078-be31-2ed02f79734f","resource":{"resourceType":"MeasureReport","id":"b34d532b-d746-4078-be31-2ed02f79734f","meta":{"profile":["http://hl7.org/fhir/us/cqfmeasures/StructureDefinition/test-case-cqfm"]},"contained":[{"resourceType":"Parameters","id":"167a6e67-42f3-448d-809a-19f2084f7e69-parameters","parameter":[{"name":"subject","valueString":"9a55bc28-43ac-4af0-8fc6-833acf9776e0"}]}],"extension":[{"url":"http://hl7.org/fhir/us/cqfmeasures/StructureDefinition/cqfm-inputParameters","valueReference":{"reference":"#167a6e67-42f3-448d-809a-19f2084f7e69-parameters"}},{"url":"http://hl7.org/fhir/us/cqfmeasures/StructureDefinition/cqfm-testCaseDescription","valueMarkdown":"Patient with cancer diagnosis overlaps the office visit during measurement period. Chemotherapy administered but no pain intensity assessment was performed. \n"}],"modifierExtension":[{"url":"http://hl7.org/fhir/us/cqfmeasures/StructureDefinition/cqfm-isTestCase","valueBoolean":true}],"status":"complete","type":"individual","measure":"https://madie.cms.gov/Measure/OncologyPainIntensityQuantifiedFHIR","period":{"start":"2025-01-01","end":"2025-12-31"},"group":[{"population":[{"code":{"coding":[{"system":"http://terminology.hl7.org/CodeSystem/measure-population","code":"initial-population","display":"Initial Population"}]},"count":1},{"code":{"coding":[{"system":"http://terminology.hl7.org/CodeSystem/measure-population","code":"denominator","display":"Denominator"}]},"count":1},{"code":{"coding":[{"system":"http://terminology.hl7.org/CodeSystem/measure-population","code":"numerator","display":"Numerator"}]},"count":0}]},{"population":[{"code":{"coding":[{"system":"http://terminology.hl7.org/CodeSystem/measure-population","code":"initial-population","display":"Initial Population"}]},"count":0},{"code":{"coding":[{"system":"http://terminology.hl7.org/CodeSystem/measure-population","code":"denominator","display":"Denominator"}]},"count":0},{"code":{"coding":[{"system":"http://terminology.hl7.org/CodeSystem/measure-population","code":"numerator","display":"Numerator"}]},"count":0}]}]},"request":{"method":"PUT","url":"MeasureReport/b34d532b-d746-4078-be31-2ed02f79734f"}}]}