{"resourceType":"Bundle","id":"tests-41f2785f-4c4f-4497-a46b-e17fd8b5ee3f-bundle","type":"transaction","entry":[{"fullUrl":"https://madie.cms.gov/Patient/41f2785f-4c4f-4497-a46b-e17fd8b5ee3f","resource":{"resourceType":"Patient","id":"41f2785f-4c4f-4497-a46b-e17fd8b5ee3f","meta":{"profile":["http://hl7.org/fhir/us/qicore/StructureDefinition/qicore-patient"]},"text":{"status":"generated","div":"<div xmlns=\"http://www.w3.org/1999/xhtml\"><div class=\"hapiHeaderText\">CMODrgEDHrsBFAdmDoNotPerformTrue <b>DENEXFail </b></div><table class=\"hapiPropertyTable\"><tbody><tr><td>Identifier</td><td>059b8a3b4412b01787dc1d643429cbf6</td></tr><tr><td>Date of birth</td><td><span>02 January 1974</span></td></tr></tbody></table></div>"},"extension":[{"url":"http://hl7.org/fhir/us/core/StructureDefinition/us-core-race","extension":[{"url":"ombCategory","valueCoding":{"system":"urn:oid:2.16.840.1.113883.6.238","code":"1002-5","display":"American Indian or Alaska Native","userSelected":true}},{"url":"text","valueString":"American Indian or Alaska Native"}]},{"url":"http://hl7.org/fhir/us/core/StructureDefinition/us-core-ethnicity","extension":[{"url":"ombCategory","valueCoding":{"system":"urn:oid:2.16.840.1.113883.6.238","code":"2135-2","display":"Hispanic or Latino","userSelected":true}},{"url":"text","valueString":"Hispanic or Latino"}]}],"identifier":[{"type":{"coding":[{"system":"http://terminology.hl7.org/CodeSystem/v2-0203","code":"MR"}]},"system":"https://bonnie-fhir.healthit.gov/","value":"612e6b4302c62a011f2ed189"}],"active":true,"name":[{"use":"usual","family":"DENEXFail","given":["CMODrgEDHrsBFAdmDoNotPerformTrue"]}],"gender":"male","birthDate":"1974-01-02"},"request":{"method":"PUT","url":"Patient/41f2785f-4c4f-4497-a46b-e17fd8b5ee3f"}},{"fullUrl":"https://madie.cms.gov/Encounter/5ca6295db8484628b8de1d5f","resource":{"resourceType":"Encounter","id":"b218a14f-2920-4c4c-a042-b0ff14e59005","meta":{"profile":["http://hl7.org/fhir/us/qicore/StructureDefinition/qicore-encounter"]},"status":"finished","class":{"system":"http://terminology.hl7.org/CodeSystem/v3-ActCode","code":"EMER","display":"emergency"},"type":[{"coding":[{"system":"http://snomed.info/sct","code":"4525004"}]}],"subject":{"reference":"Patient/104887a9-056e-4fd3-b47a-176eefbd090b"},"period":{"start":"2025-11-01T03:00:00+00:00","end":"2025-11-01T05:15:00+00:00"},"length":{"value":0,"unit":"days"}},"request":{"method":"PUT","url":"Encounter/b218a14f-2920-4c4c-a042-b0ff14e59005"}},{"fullUrl":"https://madie.cms.gov/Encounter/5ca6295db8484628b8de1d60","resource":{"resourceType":"Encounter","id":"4ae70fcd-8066-4573-b418-763431f72e07","meta":{"profile":["http://hl7.org/fhir/us/qicore/StructureDefinition/qicore-encounter"]},"status":"finished","class":{"system":"http://terminology.hl7.org/CodeSystem/v3-ActCode","code":"IMP","display":"inpatient encounter"},"type":[{"coding":[{"system":"http://snomed.info/sct","code":"8715000"}]}],"subject":{"reference":"Patient/104887a9-056e-4fd3-b47a-176eefbd090b"},"period":{"start":"2025-11-01T08:00:00+00:00","end":"2025-11-26T08:15:00+00:00"},"length":{"value":25,"unit":"days"}},"request":{"method":"PUT","url":"Encounter/4ae70fcd-8066-4573-b418-763431f72e07"}},{"fullUrl":"https://madie.cms.gov/ServiceRequest/5ca6295db8484628b8de1d61","resource":{"resourceType":"ServiceRequest","id":"22704cbd-d69d-4d66-a8e6-c2b4d50129e7","meta":{"profile":["http://hl7.org/fhir/us/qicore/StructureDefinition/qicore-servicerequest"]},"status":"completed","intent":"order","doNotPerform":true,"code":{"coding":[{"system":"http://snomed.info/sct","code":"133918004"}]},"subject":{"reference":"Patient/104887a9-056e-4fd3-b47a-176eefbd090b"},"authoredOn":"2025-11-01T05:00:00+00:00"},"request":{"method":"PUT","url":"ServiceRequest/22704cbd-d69d-4d66-a8e6-c2b4d50129e7"}},{"fullUrl":"https://madie.cms.gov/Coverage/5fa0414b1c76ba66d9959196","resource":{"resourceType":"Coverage","id":"e42550f9-ce4f-4ee8-a1b6-e0fc2b3c45df","status":"active","beneficiary":{"reference":"Patient/104887a9-056e-4fd3-b47a-176eefbd090b"},"period":{"start":"1974-01-02T08:00:00+00:00"},"payor":[{"reference":"Organization/33ead57e-5e04-40e4-95ea-bc3cdbd58917"}]},"request":{"method":"PUT","url":"Coverage/e42550f9-ce4f-4ee8-a1b6-e0fc2b3c45df"}},{"fullUrl":"https://madie.cms.gov/Organization/123456","resource":{"resourceType":"Organization","id":"33ead57e-5e04-40e4-95ea-bc3cdbd58917","meta":{"profile":["http://hl7.org/fhir/us/qicore/StructureDefinition/qicore-organization"]},"identifier":[{"use":"temp","system":"urn:oid:2.16.840.1.113883.4.4","value":"21-3259825"}],"active":true,"type":[{"coding":[{"system":"http://terminology.hl7.org/CodeSystem/organization-type","code":"pay","display":"Payer"}]}],"name":"Blue Cross Blue Shield of Texas","telecom":[{"system":"phone","value":"(+1) 972-766-6900"}],"address":[{"use":"billing","type":"postal","line":["P.O. Box 660044"],"city":"Dallas","state":"TX","postalCode":"75266-0044","country":"USA"}]},"request":{"method":"PUT","url":"Organization/33ead57e-5e04-40e4-95ea-bc3cdbd58917"}},{"fullUrl":"https://madie.cms.gov/Practitioner/practitioner-123456","resource":{"resourceType":"Practitioner","id":"fd8efc4f-377c-4e63-8b69-4e95f502aaa8","identifier":[{"system":"http://hl7.org/fhir/sid/us-npi","value":"123456"}],"name":[{"family":"Evil","prefix":["Dr"]}]},"request":{"method":"PUT","url":"Practitioner/fd8efc4f-377c-4e63-8b69-4e95f502aaa8"}},{"fullUrl":"https://madie.cms.gov/MeasureReport/bfe32635-3add-4d2e-a4f2-2669a531d153","resource":{"resourceType":"MeasureReport","id":"bfe32635-3add-4d2e-a4f2-2669a531d153","meta":{"profile":["http://hl7.org/fhir/us/cqfmeasures/StructureDefinition/test-case-cqfm"]},"contained":[{"resourceType":"Parameters","id":"3724c125-68ba-498e-910d-bca86e47967b-parameters","parameter":[{"name":"subject","valueString":"41f2785f-4c4f-4497-a46b-e17fd8b5ee3f"}]}],"extension":[{"url":"http://hl7.org/fhir/us/cqfmeasures/StructureDefinition/cqfm-inputParameters","valueReference":{"reference":"#3724c125-68ba-498e-910d-bca86e47967b-parameters"}},{"url":"http://hl7.org/fhir/us/cqfmeasures/StructureDefinition/cqfm-testCaseDescription","valueMarkdown":"Test and cover ServiceRequest.doNOtPerform is true. CMO occurs in ED that ED ends > 1 hour before Adm. But this case pass because it is on the same day as adm date"}],"modifierExtension":[{"url":"http://hl7.org/fhir/us/cqfmeasures/StructureDefinition/cqfm-isTestCase","valueBoolean":true}],"status":"complete","type":"individual","measure":"https://madie.cms.gov/Measure/VenousThromboembolismProphylaxisFHIR","period":{"start":"2025-01-01","end":"2025-12-31"},"group":[{"population":[{"code":{"coding":[{"system":"http://terminology.hl7.org/CodeSystem/measure-population","code":"initial-population","display":"Initial Population"}]},"count":1},{"code":{"coding":[{"system":"http://terminology.hl7.org/CodeSystem/measure-population","code":"denominator","display":"Denominator"}]},"count":1},{"code":{"coding":[{"system":"http://terminology.hl7.org/CodeSystem/measure-population","code":"denominator-exclusion","display":"Denominator Exclusion"}]},"count":0},{"code":{"coding":[{"system":"http://terminology.hl7.org/CodeSystem/measure-population","code":"numerator","display":"Numerator"}]},"count":0}]}]},"request":{"method":"PUT","url":"MeasureReport/bfe32635-3add-4d2e-a4f2-2669a531d153"}}]}