{"resourceType":"Bundle","id":"tests-861fe7f8-9bab-4e23-9b85-419e1aa0b1d8-bundle","type":"transaction","entry":[{"fullUrl":"https://madie.cms.gov/Patient/861fe7f8-9bab-4e23-9b85-419e1aa0b1d8","resource":{"resourceType":"Patient","id":"861fe7f8-9bab-4e23-9b85-419e1aa0b1d8","meta":{"profile":["http://hl7.org/fhir/us/qicore/StructureDefinition/qicore-patient"]},"text":{"status":"generated","div":"<div xmlns=\"http://www.w3.org/1999/xhtml\"><div class=\"hapiHeaderText\">PrincDxMH <b>DENEXPASS </b></div><table class=\"hapiPropertyTable\"><tbody><tr><td>Identifier</td><td>29c9716eb5f48b54d7b337bf497e0e5e</td></tr><tr><td>Date of birth</td><td><span>01 December 2003</span></td></tr></tbody></table></div>"},"extension":[{"url":"http://hl7.org/fhir/us/core/StructureDefinition/us-core-race","extension":[{"url":"ombCategory","valueCoding":{"system":"urn:oid:2.16.840.1.113883.6.238","code":"1002-5","display":"American Indian or Alaska Native","userSelected":true}},{"url":"text","valueString":"American Indian or Alaska Native"}]},{"url":"http://hl7.org/fhir/us/core/StructureDefinition/us-core-ethnicity","extension":[{"url":"ombCategory","valueCoding":{"system":"urn:oid:2.16.840.1.113883.6.238","code":"2135-2","display":"Hispanic or Latino","userSelected":true}},{"url":"text","valueString":"Hispanic or Latino"}]}],"identifier":[{"type":{"coding":[{"system":"http://terminology.hl7.org/CodeSystem/v2-0203","code":"MR"}]},"system":"https://bonnie-fhir.healthit.gov/","value":"612e6b6b02c62a011f2edaae"}],"active":true,"name":[{"use":"usual","family":"DENEXPass","given":["PrincDxMH"]}],"gender":"male","birthDate":"2003-12-01"},"request":{"method":"PUT","url":"Patient/861fe7f8-9bab-4e23-9b85-419e1aa0b1d8"}},{"fullUrl":"https://madie.cms.gov/Encounter/5ca62962b8484628b8de1eb4","resource":{"resourceType":"Encounter","id":"5ca62962b8484628b8de1eb4","meta":{"profile":["http://hl7.org/fhir/us/qicore/StructureDefinition/qicore-encounter"]},"status":"finished","class":{"system":"http://terminology.hl7.org/CodeSystem/v3-ActCode","code":"IMP","display":"inpatient encounter"},"type":[{"coding":[{"system":"http://snomed.info/sct","code":"183452005"}]}],"subject":{"reference":"Patient/861fe7f8-9bab-4e23-9b85-419e1aa0b1d8"},"period":{"start":"2025-12-01T08:00:00.000+00:00","end":"2025-12-31T23:59:00.000+00:00"},"length":{"value":30.0,"unit":"days"},"diagnosis":[{"condition":{"reference":"Condition/mental-health-diagnoses-1c3d"},"rank":1}]},"request":{"method":"PUT","url":"Encounter/5ca62962b8484628b8de1eb4"}},{"fullUrl":"https://madie.cms.gov/Coverage/5fa0415c1c76ba66d99592c5","resource":{"resourceType":"Coverage","id":"5fa0415c1c76ba66d99592c5","status":"active","beneficiary":{"reference":"Patient/861fe7f8-9bab-4e23-9b85-419e1aa0b1d8"},"period":{"start":"2003-12-01T00:00:00+00:00"},"payor":[{"reference":"Organization/Org-123456"}]},"request":{"method":"PUT","url":"Coverage/5fa0415c1c76ba66d99592c5"}},{"fullUrl":"https://madie.cms.gov/Condition/mental-health-diagnoses-1c3d","resource":{"resourceType":"Condition","id":"mental-health-diagnoses-1c3d","meta":{"profile":["http://hl7.org/fhir/us/qicore/StructureDefinition/qicore-condition"]},"category":[{"coding":[{"system":"http://terminology.hl7.org/CodeSystem/condition-category","code":"encounter-diagnosis","display":"Encounter Diagnosis"}]}],"code":{"coding":[{"system":"http://snomed.info/sct","version":"2025-03","code":"101421000119107","display":"Dementia due to Parkinson's disease (disorder)","userSelected":true}]},"subject":{"reference":"Patient/861fe7f8-9bab-4e23-9b85-419e1aa0b1d8"},"recordedDate":"2025-07-13T08:00:00.000+00:00"},"request":{"method":"PUT","url":"Condition/mental-health-diagnoses-1c3d"}},{"fullUrl":"https://madie.cms.gov/Organization/123456","resource":{"resourceType":"Organization","id":"Org-123456","meta":{"profile":["http://hl7.org/fhir/us/qicore/StructureDefinition/qicore-organization"]},"identifier":[{"use":"temp","system":"urn:oid:2.16.840.1.113883.4.4","value":"21-3259825"}],"active":true,"type":[{"coding":[{"system":"http://terminology.hl7.org/CodeSystem/organization-type","code":"pay","display":"Payer"}]}],"name":"Blue Cross Blue Shield of Texas","telecom":[{"system":"phone","value":"(+1) 972-766-6900"}],"address":[{"use":"billing","type":"postal","line":["P.O. Box 660044"],"city":"Dallas","state":"TX","postalCode":"75266-0044","country":"USA"}]},"request":{"method":"PUT","url":"Organization/Org-123456"}},{"fullUrl":"https://madie.cms.gov/Practitioner/practitioner-123456","resource":{"resourceType":"Practitioner","id":"practitioner-123456","identifier":[{"system":"http://hl7.org/fhir/sid/us-npi","value":"123456"}],"name":[{"family":"Evil","prefix":["Dr"]}]},"request":{"method":"PUT","url":"Practitioner/practitioner-123456"}},{"fullUrl":"https://madie.cms.gov/MeasureReport/557e203a-7a53-45f9-aae8-1fb3d896af47","resource":{"resourceType":"MeasureReport","id":"557e203a-7a53-45f9-aae8-1fb3d896af47","meta":{"profile":["http://hl7.org/fhir/us/cqfmeasures/StructureDefinition/test-case-cqfm"]},"contained":[{"resourceType":"Parameters","id":"7583cb8e-1adc-405c-a664-cc507d94c474-parameters","parameter":[{"name":"subject","valueString":"861fe7f8-9bab-4e23-9b85-419e1aa0b1d8"}]}],"extension":[{"url":"http://hl7.org/fhir/us/cqfmeasures/StructureDefinition/cqfm-inputParameters","valueReference":{"reference":"#7583cb8e-1adc-405c-a664-cc507d94c474-parameters"}},{"url":"http://hl7.org/fhir/us/cqfmeasures/StructureDefinition/cqfm-testCaseDescription","valueMarkdown":"Principal Dx of mental health.\n"}],"modifierExtension":[{"url":"http://hl7.org/fhir/us/cqfmeasures/StructureDefinition/cqfm-isTestCase","valueBoolean":true}],"status":"complete","type":"individual","measure":"https://madie.cms.gov/Measure/VenousThromboembolismProphylaxisFHIR","period":{"start":"2025-01-01","end":"2025-12-31"},"group":[{"population":[{"code":{"coding":[{"system":"http://terminology.hl7.org/CodeSystem/measure-population","code":"initial-population","display":"Initial Population"}]},"count":1},{"code":{"coding":[{"system":"http://terminology.hl7.org/CodeSystem/measure-population","code":"denominator","display":"Denominator"}]},"count":1},{"code":{"coding":[{"system":"http://terminology.hl7.org/CodeSystem/measure-population","code":"denominator-exclusion","display":"Denominator Exclusion"}]},"count":1},{"code":{"coding":[{"system":"http://terminology.hl7.org/CodeSystem/measure-population","code":"numerator","display":"Numerator"}]},"count":0}]}],"evaluatedResource":[{"reference":"Patient/861fe7f8-9bab-4e23-9b85-419e1aa0b1d8"},{"reference":"Encounter/5ca62962b8484628b8de1eb4"},{"reference":"Coverage/5fa0415c1c76ba66d99592c5"},{"reference":"Condition/mental-health-diagnoses-1c3d"},{"reference":"Organization/Org-123456"},{"reference":"Practitioner/practitioner-123456"}]},"request":{"method":"PUT","url":"MeasureReport/557e203a-7a53-45f9-aae8-1fb3d896af47"}}]}