{"resourceType":"Bundle","id":"tests-ba8ca84a-2636-42e5-8538-7a70b1c48670-bundle","type":"transaction","entry":[{"fullUrl":"https://madie.cms.gov/Patient/ba8ca84a-2636-42e5-8538-7a70b1c48670","resource":{"resourceType":"Patient","id":"ba8ca84a-2636-42e5-8538-7a70b1c48670","meta":{"profile":["http://hl7.org/fhir/us/qicore/StructureDefinition/qicore-patient"]},"extension":[{"url":"http://hl7.org/fhir/us/core/StructureDefinition/us-core-race","extension":[{"url":"ombCategory","valueCoding":{"system":"urn:oid:2.16.840.1.113883.6.238","code":"1002-5","display":"American Indian or Alaska Native","userSelected":true}},{"url":"text","valueString":"American Indian or Alaska Native"}]},{"url":"http://hl7.org/fhir/us/core/StructureDefinition/us-core-ethnicity","extension":[{"url":"ombCategory","valueCoding":{"system":"urn:oid:2.16.840.1.113883.6.238","code":"2135-2","display":"Hispanic or Latino","userSelected":true}},{"url":"text","valueString":"Hispanic or Latino"}]}],"identifier":[{"type":{"coding":[{"system":"http://terminology.hl7.org/CodeSystem/v2-0203","code":"MR"}]},"system":"https://bonnie-fhir.healthit.gov/","value":"60f8469aa6b2848d9bc604f4"}],"name":[{"family":"NUMERPass","given":["LabTestAge65relevantPeriod"]}],"gender":"female","birthDate":"1959-01-02"},"request":{"method":"PUT","url":"Patient/ba8ca84a-2636-42e5-8538-7a70b1c48670"}},{"fullUrl":"https://madie.cms.gov/Encounter/preventive-care-services-established","resource":{"resourceType":"Encounter","id":"preventive-care-services-established","meta":{"profile":["http://hl7.org/fhir/us/qicore/StructureDefinition/qicore-encounter"]},"status":"finished","class":{"system":"http://terminology.hl7.org/CodeSystem/v3-ActCode","code":"AMB","display":"ambulatory","userSelected":true},"type":[{"coding":[{"system":"http://www.ama-assn.org/go/cpt","version":"2021","code":"99395","display":"Periodic comprehensive preventive medicine reevaluation and management of an individual including an age and gender appropriate history, examination, counseling/anticipatory guidance/risk factor reduction interventions, and the ordering of laboratory/diagnostic procedures, established patient; 18-39 years","userSelected":true}]}],"subject":{"reference":"Patient/ba8ca84a-2636-42e5-8538-7a70b1c48670"},"period":{"start":"2025-02-06T08:00:00.000+00:00","end":"2025-02-06T08:15:00.000+00:00"}},"request":{"method":"PUT","url":"Encounter/preventive-care-services-established"}},{"fullUrl":"https://madie.cms.gov/Observation/hiv-laboratory-test-codes-ab-and-ag-04f7","resource":{"resourceType":"Observation","id":"hiv-laboratory-test-codes-ab-and-ag-04f7","meta":{"profile":["http://hl7.org/fhir/us/qicore/StructureDefinition/qicore-observation"]},"status":"final","category":[{"coding":[{"system":"http://terminology.hl7.org/CodeSystem/observation-category","code":"laboratory","display":"Laboratory","userSelected":true}]}],"code":{"coding":[{"system":"http://loinc.org","version":"2.69","code":"10901-7","display":"HIV 2 gp125 Ab [Presence] in Serum by Immunoblot","userSelected":true}]},"subject":{"reference":"Patient/ba8ca84a-2636-42e5-8538-7a70b1c48670"},"effectivePeriod":{"start":"2025-01-01T08:00:00.000+00:00","end":"2025-01-01T08:15:00.000+00:00"},"valueBoolean":true},"request":{"method":"PUT","url":"Observation/hiv-laboratory-test-codes-ab-and-ag-04f7"}},{"fullUrl":"https://madie.cms.gov/MeasureReport/84f2226f-9c9c-477e-b3d8-12856cd28251","resource":{"resourceType":"MeasureReport","id":"84f2226f-9c9c-477e-b3d8-12856cd28251","meta":{"profile":["http://hl7.org/fhir/us/cqfmeasures/StructureDefinition/test-case-cqfm"]},"contained":[{"resourceType":"Parameters","id":"81c08abb-4d28-4750-9bfc-7438d3b3d567-parameters","parameter":[{"name":"subject","valueString":"ba8ca84a-2636-42e5-8538-7a70b1c48670"}]}],"extension":[{"url":"http://hl7.org/fhir/us/cqfmeasures/StructureDefinition/cqfm-inputParameters","valueReference":{"reference":"#81c08abb-4d28-4750-9bfc-7438d3b3d567-parameters"}},{"url":"http://hl7.org/fhir/us/cqfmeasures/StructureDefinition/cqfm-testCaseDescription","valueMarkdown":"Patient 65 at start of MP,  qual encounter during MP, lab test at 65 during MP. - relevantPeriod"}],"modifierExtension":[{"url":"http://hl7.org/fhir/us/cqfmeasures/StructureDefinition/cqfm-isTestCase","valueBoolean":true}],"status":"complete","type":"individual","measure":"https://madie.cms.gov/Measure/HIVScreeningFHIR","period":{"start":"2025-01-01","end":"2025-12-31"},"group":[{"population":[{"code":{"coding":[{"system":"http://terminology.hl7.org/CodeSystem/measure-population","code":"initial-population","display":"Initial Population"}]},"count":1},{"code":{"coding":[{"system":"http://terminology.hl7.org/CodeSystem/measure-population","code":"denominator","display":"Denominator"}]},"count":1},{"code":{"coding":[{"system":"http://terminology.hl7.org/CodeSystem/measure-population","code":"denominator-exclusion","display":"Denominator Exclusion"}]},"count":0},{"code":{"coding":[{"system":"http://terminology.hl7.org/CodeSystem/measure-population","code":"numerator","display":"Numerator"}]},"count":1}]}],"evaluatedResource":[{"reference":"Patient/ba8ca84a-2636-42e5-8538-7a70b1c48670"},{"reference":"Encounter/preventive-care-services-established"},{"reference":"Observation/hiv-laboratory-test-codes-ab-and-ag-04f7"}]},"request":{"method":"PUT","url":"MeasureReport/84f2226f-9c9c-477e-b3d8-12856cd28251"}}]}