{"resourceType":"Bundle","id":"tests-0485e795-98c7-433b-8c70-20a888f5d9d0-bundle","type":"transaction","entry":[{"fullUrl":"https://madie.cms.gov/Patient/0485e795-98c7-433b-8c70-20a888f5d9d0","resource":{"resourceType":"Patient","id":"0485e795-98c7-433b-8c70-20a888f5d9d0","meta":{"profile":["http://hl7.org/fhir/us/qicore/StructureDefinition/qicore-patient"]},"text":{"status":"generated","div":"<div xmlns=\"http://www.w3.org/1999/xhtml\"><div class=\"hapiHeaderText\">Turns 18 day of Encounter <b>DENOMPASS </b></div><table class=\"hapiPropertyTable\"><tbody><tr><td>Identifier</td><td>f0eda1c9668fdacdcad3378589bf6e0a71e7dec1618f14fca4d442ec96e402b1</td></tr><tr><td>Date of birth</td><td><span>29 September 2006</span></td></tr></tbody></table></div>"},"extension":[{"url":"http://hl7.org/fhir/us/core/StructureDefinition/us-core-race","extension":[{"url":"ombCategory","valueCoding":{"system":"urn:oid:2.16.840.1.113883.6.238","code":"1002-5","display":"American Indian or Alaska Native","userSelected":true}},{"url":"text","valueString":"American Indian or Alaska Native"}]},{"url":"http://hl7.org/fhir/us/core/StructureDefinition/us-core-ethnicity","extension":[{"url":"ombCategory","valueCoding":{"system":"urn:oid:2.16.840.1.113883.6.238","code":"2135-2","display":"Hispanic or Latino","userSelected":true}},{"url":"text","valueString":"Hispanic or Latino"}]}],"identifier":[{"type":{"coding":[{"system":"http://terminology.hl7.org/CodeSystem/v2-0203","code":"MR"}]},"system":"http://bonnie-fhir.healthit.gov/","value":"DENOMPass-CreatinineAfter48Hours"}],"active":true,"name":[{"use":"usual","family":"DENOMPass","given":["CreatinineAfter48Hours"]}],"gender":"female","birthDate":"1982-10-10"},"request":{"method":"PUT","url":"Patient/0485e795-98c7-433b-8c70-20a888f5d9d0"}},{"fullUrl":"https://madie.cms.gov/Encounter/67af1503-a468-48ff-a018-080633d96b3f","resource":{"resourceType":"Encounter","id":"67af1503-a468-48ff-a018-080633d96b3f","meta":{"profile":["http://hl7.org/fhir/us/qicore/StructureDefinition/qicore-encounter"]},"status":"finished","class":{"system":"http://terminology.hl7.org/CodeSystem/v3-ActCode","code":"IMP","display":"inpatient encounter"},"type":[{"coding":[{"system":"http://snomed.info/sct","code":"183452005"}]}],"subject":{"reference":"Patient/0485e795-98c7-433b-8c70-20a888f5d9d0"},"period":{"start":"2025-09-29T08:00:00.000Z","end":"2025-10-03T20:00:00.000Z"}},"request":{"method":"PUT","url":"Encounter/67af1503-a468-48ff-a018-080633d96b3f"}},{"fullUrl":"https://madie.cms.gov/Observation/8789aee4-d1af-4888-8f51-1af9fb516f75","resource":{"resourceType":"Observation","id":"8789aee4-d1af-4888-8f51-1af9fb516f75","meta":{"profile":["http://hl7.org/fhir/us/qicore/StructureDefinition/qicore-observation"]},"status":"final","category":[{"coding":[{"system":"http://terminology.hl7.org/CodeSystem/observation-category","code":"laboratory","display":"Laboratory"}]}],"code":{"coding":[{"system":"http://loinc.org","version":"2.72","code":"2160-0","display":"Creatinine [Mass/volume] in Serum or Plasma","userSelected":true}]},"subject":{"reference":"Patient/0485e795-98c7-433b-8c70-20a888f5d9d0"},"effectiveDateTime":"2025-10-01T08:01:00+00:00","issued":"2025-10-01T08:31:00+00:00","valueQuantity":{"value":1.1,"unit":"mg/dL","system":"http://unitsofmeasure.org","code":"mg/dL"}},"request":{"method":"PUT","url":"Observation/8789aee4-d1af-4888-8f51-1af9fb516f75"}},{"fullUrl":"https://madie.cms.gov/Observation/aa700d89-0219-4ae1-b63a-f16dda4b8c9e","resource":{"resourceType":"Observation","id":"aa700d89-0219-4ae1-b63a-f16dda4b8c9e","meta":{"profile":["http://hl7.org/fhir/us/qicore/StructureDefinition/qicore-observation"]},"status":"final","category":[{"coding":[{"system":"http://terminology.hl7.org/CodeSystem/observation-category","code":"laboratory","display":"Laboratory"}]}],"code":{"coding":[{"system":"http://loinc.org","code":"2160-0","display":"Creatinine [Mass/volume] in Serum or Plasma"}]},"subject":{"reference":"Patient/0485e795-98c7-433b-8c70-20a888f5d9d0"},"effectiveDateTime":"2025-09-29T09:00:00+00:00","issued":"2025-09-29T09:30:00+00:00","valueQuantity":{"value":0.9,"unit":"mg/dL","system":"http://unitsofmeasure.org","code":"mg/dL"}},"request":{"method":"PUT","url":"Observation/aa700d89-0219-4ae1-b63a-f16dda4b8c9e"}},{"fullUrl":"https://madie.cms.gov/Observation/1cfbcef5-ed32-47fa-bb0a-7719ea713f95","resource":{"resourceType":"Observation","id":"1cfbcef5-ed32-47fa-bb0a-7719ea713f95","meta":{"profile":["http://hl7.org/fhir/us/qicore/StructureDefinition/qicore-observation"]},"status":"final","category":[{"coding":[{"system":"http://terminology.hl7.org/CodeSystem/observation-category","code":"laboratory","display":"Laboratory"}]}],"code":{"coding":[{"system":"http://loinc.org","version":"2.72","code":"2160-0","display":"Creatinine [Mass/volume] in Serum or Plasma","userSelected":true}]},"subject":{"reference":"Patient/0485e795-98c7-433b-8c70-20a888f5d9d0"},"effectiveDateTime":"2025-09-30T07:35:00+00:00","issued":"2025-09-30T08:00:00+00:00","valueQuantity":{"value":1,"unit":"mg/dL","system":"http://unitsofmeasure.org","code":"mg/dL"}},"request":{"method":"PUT","url":"Observation/1cfbcef5-ed32-47fa-bb0a-7719ea713f95"}},{"fullUrl":"https://madie.cms.gov/Coverage/0df30d18-de30-4ebd-8a52-6c3ff90ef691","resource":{"resourceType":"Coverage","id":"0df30d18-de30-4ebd-8a52-6c3ff90ef691","meta":{"profile":["http://hl7.org/fhir/us/qicore/StructureDefinition/qicore-coverage"]},"status":"active","type":{"coding":[{"system":"https://nahdo.org/sopt","version":"9.2","code":"211","display":"Medicaid HMO"}]},"beneficiary":{"reference":"Patient/0485e795-98c7-433b-8c70-20a888f5d9d0"},"period":{"start":"2023-12-01T00:00:00+00:00"},"payor":[{"reference":"Organization/9e9b3f13-a353-4173-b29b-947d6f1f2031"}]},"request":{"method":"PUT","url":"Coverage/0df30d18-de30-4ebd-8a52-6c3ff90ef691"}},{"fullUrl":"https://madie.cms.gov/Organization/fe1c70c0-3eda-494a-a29c-8aa8192ea829","resource":{"resourceType":"Organization","id":"9e9b3f13-a353-4173-b29b-947d6f1f2031","meta":{"profile":["http://hl7.org/fhir/us/qicore/StructureDefinition/qicore-organization"]},"identifier":[{"use":"temp","system":"urn:oid:2.16.840.1.113883.4.4","value":"21-3259825"}],"active":true,"type":[{"coding":[{"system":"http://terminology.hl7.org/CodeSystem/organization-type","code":"pay","display":"Payer"}]}],"name":"Blue Cross Blue Shield of Texas","telecom":[{"system":"phone","value":"(+1) 972-766-6900"}],"address":[{"use":"billing","type":"postal","line":["P.O. Box 660044"],"city":"Dallas","state":"TX","postalCode":"75266-0044","country":"USA"}]},"request":{"method":"PUT","url":"Organization/9e9b3f13-a353-4173-b29b-947d6f1f2031"}},{"fullUrl":"https://madie.cms.gov/MeasureReport/f313f342-ca3a-4640-8305-14555b37bde1","resource":{"resourceType":"MeasureReport","id":"f313f342-ca3a-4640-8305-14555b37bde1","meta":{"profile":["http://hl7.org/fhir/us/cqfmeasures/StructureDefinition/test-case-cqfm"]},"contained":[{"resourceType":"Parameters","id":"063d20f5-cf07-48f9-ab04-777d2a5b3c41-parameters","parameter":[{"name":"subject","valueString":"0485e795-98c7-433b-8c70-20a888f5d9d0"}]}],"extension":[{"url":"http://hl7.org/fhir/us/cqfmeasures/StructureDefinition/cqfm-inputParameters","valueReference":{"reference":"#063d20f5-cf07-48f9-ab04-777d2a5b3c41-parameters"}},{"url":"http://hl7.org/fhir/us/cqfmeasures/StructureDefinition/cqfm-testCaseDescription","valueMarkdown":"IP Encounter with at least one creatinine after 48 hours. Meets denominator criteria - must have at least 1 creatinine after first 48 hours.\nVScode: Denominator=[Encounter(id=DENOMPass-CreatinineAfter48Hours-01)],  Denominator Exclusion=[]"}],"modifierExtension":[{"url":"http://hl7.org/fhir/us/cqfmeasures/StructureDefinition/cqfm-isTestCase","valueBoolean":true}],"status":"complete","type":"individual","measure":"https://madie.cms.gov/Measure/CMS832HHAKIFHIR","period":{"start":"2025-01-01","end":"2025-12-31"},"group":[{"population":[{"code":{"coding":[{"system":"http://terminology.hl7.org/CodeSystem/measure-population","code":"initial-population","display":"Initial Population"}]},"count":1},{"code":{"coding":[{"system":"http://terminology.hl7.org/CodeSystem/measure-population","code":"denominator","display":"Denominator"}]},"count":1},{"code":{"coding":[{"system":"http://terminology.hl7.org/CodeSystem/measure-population","code":"denominator-exclusion","display":"Denominator Exclusion"}]},"count":0},{"code":{"coding":[{"system":"http://terminology.hl7.org/CodeSystem/measure-population","code":"numerator","display":"Numerator"}]},"count":0}]}]},"request":{"method":"PUT","url":"MeasureReport/f313f342-ca3a-4640-8305-14555b37bde1"}}]}