{"resourceType":"Bundle","id":"tests-4e99c198-d57e-4f79-bdda-097c52e0c5cf-bundle","type":"transaction","entry":[{"fullUrl":"https://madie.cms.gov/Patient/4e99c198-d57e-4f79-bdda-097c52e0c5cf","resource":{"resourceType":"Patient","id":"4e99c198-d57e-4f79-bdda-097c52e0c5cf","meta":{"profile":["http://hl7.org/fhir/us/qicore/StructureDefinition/qicore-patient"]},"extension":[{"url":"http://hl7.org/fhir/us/core/StructureDefinition/us-core-race","extension":[{"url":"ombCategory","valueCoding":{"system":"urn:oid:2.16.840.1.113883.6.238","code":"2028-9","display":"Asian"}},{"url":"text","valueString":"Asian"}]},{"url":"http://hl7.org/fhir/us/core/StructureDefinition/us-core-ethnicity","extension":[{"url":"ombCategory","valueCoding":{"system":"urn:oid:2.16.840.1.113883.6.238","code":"2135-2","display":"Hispanic or Latino"}},{"url":"text","valueString":"Hispanic or Latino"}]}],"identifier":[{"system":"http://hospital.smarthealthit.org","value":"999999995"}],"name":[{"family":"Bertha","given":["Betty"]}],"gender":"female","birthDate":"2006-01-01"},"request":{"method":"PUT","url":"Patient/4e99c198-d57e-4f79-bdda-097c52e0c5cf"}},{"fullUrl":"https://madie.cms.gov/Procedure/Procedure-38","resource":{"resourceType":"Procedure","id":"73a0ec13-7a2f-4566-8830-3c7ec04e3331","meta":{"profile":["http://hl7.org/fhir/us/qicore/StructureDefinition/qicore-procedure"]},"extension":[{"url":"http://hl7.org/fhir/us/qicore/StructureDefinition/qicore-recorded","valueDateTime":"2023-11-01T00:00:00.000Z"}],"status":"completed","code":{"coding":[{"system":"http://www.cms.gov/Medicare/Coding/ICD10","code":"0SR9019","display":"Replacement of Right Hip Joint with Metal Synthetic Substitute, Cemented, Open Approach"}]},"subject":{"reference":"Patient/4e99c198-d57e-4f79-bdda-097c52e0c5cf"},"performedPeriod":{"start":"2023-11-01T00:00:00.000Z","end":"2023-11-01T01:00:00.000Z"}},"request":{"method":"PUT","url":"Procedure/73a0ec13-7a2f-4566-8830-3c7ec04e3331"}},{"fullUrl":"https://madie.cms.gov/Encounter/Encounter-38","resource":{"resourceType":"Encounter","id":"df85c92b-0a39-43f8-8019-c8d6f34a0564","meta":{"profile":["http://hl7.org/fhir/us/qicore/StructureDefinition/qicore-encounter"]},"status":"finished","class":{"system":"http://terminology.hl7.org/CodeSystem/v3-ActCode","code":"AMB","display":"ambulatory"},"type":[{"coding":[{"system":"http://snomed.info/sct","code":"281036007","display":"Follow-up consultation (procedure)"}]}],"subject":{"reference":"Patient/4e99c198-d57e-4f79-bdda-097c52e0c5cf"},"period":{"start":"2024-11-01T00:00:00.000Z","end":"2024-11-01T01:15:00.000Z"}},"request":{"method":"PUT","url":"Encounter/df85c92b-0a39-43f8-8019-c8d6f34a0564"}},{"fullUrl":"https://madie.cms.gov/Observation/Observation-38.1-1","resource":{"resourceType":"Observation","id":"9e7312b4-27ab-40fb-ae3d-eb15b8432d62","meta":{"profile":["http://hl7.org/fhir/us/qicore/StructureDefinition/qicore-observation"]},"status":"final","category":[{"coding":[{"system":"http://terminology.hl7.org/CodeSystem/observation-category","code":"survey"}]}],"code":{"coding":[{"system":"http://loinc.org","code":"82323-7","display":"Total interval score [HOOSJR]]"}]},"subject":{"reference":"Patient/4e99c198-d57e-4f79-bdda-097c52e0c5cf"},"effectivePeriod":{"start":"2023-08-03T00:00:00.000Z","end":"2023-08-03T01:00:00.000Z"},"valueInteger":60},"request":{"method":"PUT","url":"Observation/9e7312b4-27ab-40fb-ae3d-eb15b8432d62"}},{"fullUrl":"https://madie.cms.gov/Observation/Observation-38.2-1","resource":{"resourceType":"Observation","id":"2f70596d-a92e-49e0-9bbb-b76cb629ca6b","meta":{"profile":["http://hl7.org/fhir/us/qicore/StructureDefinition/qicore-observation"]},"status":"final","category":[{"coding":[{"system":"http://terminology.hl7.org/CodeSystem/observation-category","code":"survey"}]}],"code":{"coding":[{"system":"http://loinc.org","code":"82323-7","display":"Total interval score [HOOSJR]"}]},"subject":{"reference":"Patient/4e99c198-d57e-4f79-bdda-097c52e0c5cf"},"effectivePeriod":{"start":"2024-12-30T00:00:00.000Z","end":"2024-12-30T01:00:00.000Z"},"valueInteger":60},"request":{"method":"PUT","url":"Observation/2f70596d-a92e-49e0-9bbb-b76cb629ca6b"}},{"fullUrl":"https://madie.cms.gov/MeasureReport/a86cb60c-0eda-493a-85b2-3ba652096a7c","resource":{"resourceType":"MeasureReport","id":"a86cb60c-0eda-493a-85b2-3ba652096a7c","meta":{"profile":["http://hl7.org/fhir/us/cqfmeasures/StructureDefinition/test-case-cqfm"]},"contained":[{"resourceType":"Parameters","id":"3c38015d-f6aa-46fe-97f0-cb9c845c399a-parameters","parameter":[{"name":"subject","valueString":"4e99c198-d57e-4f79-bdda-097c52e0c5cf"}]}],"extension":[{"url":"http://hl7.org/fhir/us/cqfmeasures/StructureDefinition/cqfm-inputParameters","valueReference":{"reference":"#3c38015d-f6aa-46fe-97f0-cb9c845c399a-parameters"}},{"url":"http://hl7.org/fhir/us/cqfmeasures/StructureDefinition/cqfm-testCaseDescription","valueMarkdown":"Patient w/ a THA Procedure 11/1, Initial Hip Assessment HOOSJr 90 days before THA Procedure(8/3), and FollowUp Hip Assessment HOOSJr 425 days after THA Procedure (12/30)"}],"modifierExtension":[{"url":"http://hl7.org/fhir/us/cqfmeasures/StructureDefinition/cqfm-isTestCase","valueBoolean":true}],"status":"complete","type":"individual","measure":"https://madie.cms.gov/Measure/FunctionalStatusAssessmentforTotalHipReplacementFHIR","period":{"start":"2025-01-01","end":"2025-12-31"},"group":[{"population":[{"code":{"coding":[{"system":"http://terminology.hl7.org/CodeSystem/measure-population","code":"initial-population","display":"Initial Population"}]},"count":1},{"code":{"coding":[{"system":"http://terminology.hl7.org/CodeSystem/measure-population","code":"denominator","display":"Denominator"}]},"count":1},{"code":{"coding":[{"system":"http://terminology.hl7.org/CodeSystem/measure-population","code":"denominator-exclusion","display":"Denominator Exclusion"}]},"count":0},{"code":{"coding":[{"system":"http://terminology.hl7.org/CodeSystem/measure-population","code":"numerator","display":"Numerator"}]},"count":1}]}]},"request":{"method":"PUT","url":"MeasureReport/a86cb60c-0eda-493a-85b2-3ba652096a7c"}}]}