{"resourceType":"Bundle","id":"tests-61c1bb3b-91bf-41aa-b0a5-3ece5fd99d01-bundle","type":"transaction","entry":[{"fullUrl":"https://madie.cms.gov/Patient/61c1bb3b-91bf-41aa-b0a5-3ece5fd99d01","resource":{"resourceType":"Patient","id":"61c1bb3b-91bf-41aa-b0a5-3ece5fd99d01","meta":{"profile":["http://hl7.org/fhir/us/qicore/StructureDefinition/qicore-patient"]},"extension":[{"url":"http://hl7.org/fhir/us/core/StructureDefinition/us-core-race","extension":[{"url":"ombCategory","valueCoding":{"system":"urn:oid:2.16.840.1.113883.6.238","code":"2028-9","display":"Asian"}},{"url":"text","valueString":"Asian"}]},{"url":"http://hl7.org/fhir/us/core/StructureDefinition/us-core-ethnicity","extension":[{"url":"ombCategory","valueCoding":{"system":"urn:oid:2.16.840.1.113883.6.238","code":"2135-2","display":"Hispanic or Latino"}},{"url":"text","valueString":"Hispanic or Latino"}]}],"identifier":[{"system":"http://hospital.smarthealthit.org","value":"999999995"}],"name":[{"family":"Bertha","given":["Betty"]}],"gender":"female","birthDate":"2006-01-01"},"request":{"method":"PUT","url":"Patient/61c1bb3b-91bf-41aa-b0a5-3ece5fd99d01"}},{"fullUrl":"https://madie.cms.gov/Procedure/Procedure-41","resource":{"resourceType":"Procedure","id":"021c688e-ad52-44bc-98ab-343de651ec5b","meta":{"profile":["http://hl7.org/fhir/us/qicore/StructureDefinition/qicore-procedure"]},"extension":[{"url":"http://hl7.org/fhir/us/qicore/StructureDefinition/qicore-recorded","valueDateTime":"2023-11-01T00:00:00.000Z"}],"status":"completed","code":{"coding":[{"system":"http://www.cms.gov/Medicare/Coding/ICD10","code":"0SR9019","display":"Replacement of Right Hip Joint with Metal Synthetic Substitute, Cemented, Open Approach"}]},"subject":{"reference":"Patient/61c1bb3b-91bf-41aa-b0a5-3ece5fd99d01"},"performedPeriod":{"start":"2023-11-01T00:00:00.000Z","end":"2023-11-01T01:00:00.000Z"}},"request":{"method":"PUT","url":"Procedure/021c688e-ad52-44bc-98ab-343de651ec5b"}},{"fullUrl":"https://madie.cms.gov/Encounter/Encounter-41","resource":{"resourceType":"Encounter","id":"2e7d0aff-3390-4dd0-bc4e-b2a7ec08bb63","meta":{"profile":["http://hl7.org/fhir/us/qicore/StructureDefinition/qicore-encounter"]},"status":"finished","class":{"system":"http://terminology.hl7.org/CodeSystem/v3-ActCode","code":"AMB","display":"ambulatory"},"type":[{"coding":[{"system":"http://snomed.info/sct","code":"281036007","display":"Follow-up consultation (procedure)"}]}],"subject":{"reference":"Patient/61c1bb3b-91bf-41aa-b0a5-3ece5fd99d01"},"period":{"start":"2024-11-01T00:00:00.000Z","end":"2024-11-01T01:15:00.000Z"}},"request":{"method":"PUT","url":"Encounter/2e7d0aff-3390-4dd0-bc4e-b2a7ec08bb63"}},{"fullUrl":"https://madie.cms.gov/Observation/Observation-41.1-1","resource":{"resourceType":"Observation","id":"d6d93977-b9cc-427b-909b-687017507068","meta":{"profile":["http://hl7.org/fhir/us/qicore/StructureDefinition/qicore-observation"]},"status":"final","category":[{"coding":[{"system":"http://terminology.hl7.org/CodeSystem/observation-category","code":"survey"}]}],"code":{"coding":[{"system":"http://loinc.org","code":"72026-8","display":"VR-12 Mental component summary (MCS) score - oblique method T-score"}]},"subject":{"reference":"Patient/61c1bb3b-91bf-41aa-b0a5-3ece5fd99d01"},"effectivePeriod":{"start":"2023-11-01T00:00:00.000Z","end":"2023-11-01T01:00:00.000Z"},"valueInteger":60},"request":{"method":"PUT","url":"Observation/d6d93977-b9cc-427b-909b-687017507068"}},{"fullUrl":"https://madie.cms.gov/Observation/Observation-41.1-2","resource":{"resourceType":"Observation","id":"98d97265-c8e8-4519-bfbf-43aeed335ba1","meta":{"profile":["http://hl7.org/fhir/us/qicore/StructureDefinition/qicore-observation"]},"status":"final","category":[{"coding":[{"system":"http://terminology.hl7.org/CodeSystem/observation-category","code":"survey"}]}],"code":{"coding":[{"system":"http://loinc.org","code":"72025-0","display":"VR-12 Physical component summary (PCS) score - oblique method T-score"}]},"subject":{"reference":"Patient/61c1bb3b-91bf-41aa-b0a5-3ece5fd99d01"},"effectivePeriod":{"start":"2023-11-01T00:00:00.000Z","end":"2023-11-01T01:00:00.000Z"},"valueInteger":60},"request":{"method":"PUT","url":"Observation/98d97265-c8e8-4519-bfbf-43aeed335ba1"}},{"fullUrl":"https://madie.cms.gov/Observation/Observation-41.2-1","resource":{"resourceType":"Observation","id":"8c657d18-2c50-4c3f-b3c3-241dbbcba8e2","meta":{"profile":["http://hl7.org/fhir/us/qicore/StructureDefinition/qicore-observation"]},"status":"final","category":[{"coding":[{"system":"http://terminology.hl7.org/CodeSystem/observation-category","code":"survey"}]}],"code":{"coding":[{"system":"http://loinc.org","code":"72026-8","display":"VR-12 Mental component summary (MCS) score - oblique method T-score"}]},"subject":{"reference":"Patient/61c1bb3b-91bf-41aa-b0a5-3ece5fd99d01"},"effectivePeriod":{"start":"2024-08-27T00:00:00.000Z","end":"2024-08-27T01:00:00.000Z"},"valueInteger":60},"request":{"method":"PUT","url":"Observation/8c657d18-2c50-4c3f-b3c3-241dbbcba8e2"}},{"fullUrl":"https://madie.cms.gov/Observation/Observation-41.2-2","resource":{"resourceType":"Observation","id":"9647feb1-540d-46b2-b78f-6725c691ebd5","meta":{"profile":["http://hl7.org/fhir/us/qicore/StructureDefinition/qicore-observation"]},"status":"final","category":[{"coding":[{"system":"http://terminology.hl7.org/CodeSystem/observation-category","code":"survey"}]}],"code":{"coding":[{"system":"http://loinc.org","code":"72025-0","display":"VR-12 Physical component summary (PCS) score - oblique method T-score"}]},"subject":{"reference":"Patient/61c1bb3b-91bf-41aa-b0a5-3ece5fd99d01"},"effectivePeriod":{"start":"2024-08-27T00:00:00.000Z","end":"2024-08-27T01:00:00.000Z"},"valueInteger":60},"request":{"method":"PUT","url":"Observation/9647feb1-540d-46b2-b78f-6725c691ebd5"}},{"fullUrl":"https://madie.cms.gov/MeasureReport/71eda499-fb74-4ce1-b777-78e029c65de1","resource":{"resourceType":"MeasureReport","id":"71eda499-fb74-4ce1-b777-78e029c65de1","meta":{"profile":["http://hl7.org/fhir/us/cqfmeasures/StructureDefinition/test-case-cqfm"]},"contained":[{"resourceType":"Parameters","id":"9c0efa12-f3a6-4a3a-9d0a-e8d9afa1bdc9-parameters","parameter":[{"name":"subject","valueString":"61c1bb3b-91bf-41aa-b0a5-3ece5fd99d01"}]}],"extension":[{"url":"http://hl7.org/fhir/us/cqfmeasures/StructureDefinition/cqfm-inputParameters","valueReference":{"reference":"#9c0efa12-f3a6-4a3a-9d0a-e8d9afa1bdc9-parameters"}},{"url":"http://hl7.org/fhir/us/cqfmeasures/StructureDefinition/cqfm-testCaseDescription","valueMarkdown":"Patient w/ a THA Procedure 11/1, Initial Hip Assessment Oblique Same day as THA Procedure(11/1), and FollowUp Hip Assessment Oblique 300 days after THA Procedure (8/27)"}],"modifierExtension":[{"url":"http://hl7.org/fhir/us/cqfmeasures/StructureDefinition/cqfm-isTestCase","valueBoolean":true}],"status":"complete","type":"individual","measure":"https://madie.cms.gov/Measure/FunctionalStatusAssessmentforTotalHipReplacementFHIR","period":{"start":"2025-01-01","end":"2025-12-31"},"group":[{"population":[{"code":{"coding":[{"system":"http://terminology.hl7.org/CodeSystem/measure-population","code":"initial-population","display":"Initial Population"}]},"count":1},{"code":{"coding":[{"system":"http://terminology.hl7.org/CodeSystem/measure-population","code":"denominator","display":"Denominator"}]},"count":1},{"code":{"coding":[{"system":"http://terminology.hl7.org/CodeSystem/measure-population","code":"denominator-exclusion","display":"Denominator Exclusion"}]},"count":0},{"code":{"coding":[{"system":"http://terminology.hl7.org/CodeSystem/measure-population","code":"numerator","display":"Numerator"}]},"count":1}]}]},"request":{"method":"PUT","url":"MeasureReport/71eda499-fb74-4ce1-b777-78e029c65de1"}}]}