{"resourceType":"Bundle","id":"tests-a53f21cf-775e-469a-8afc-b89d70d41b20-bundle","type":"transaction","entry":[{"fullUrl":"https://madie.cms.gov/Patient/a53f21cf-775e-469a-8afc-b89d70d41b20","resource":{"resourceType":"Patient","id":"a53f21cf-775e-469a-8afc-b89d70d41b20","meta":{"profile":["http://hl7.org/fhir/us/qicore/StructureDefinition/qicore-patient"]},"extension":[{"url":"http://hl7.org/fhir/us/core/StructureDefinition/us-core-race","extension":[{"url":"ombCategory","valueCoding":{"system":"urn:oid:2.16.840.1.113883.6.238","code":"2028-9","display":"Asian"}},{"url":"text","valueString":"Asian"}]},{"url":"http://hl7.org/fhir/us/core/StructureDefinition/us-core-ethnicity","extension":[{"url":"ombCategory","valueCoding":{"system":"urn:oid:2.16.840.1.113883.6.238","code":"2135-2","display":"Hispanic or Latino"}},{"url":"text","valueString":"Hispanic or Latino"}]}],"identifier":[{"system":"http://hospital.smarthealthit.org","value":"999999995"}],"name":[{"family":"Bertha","given":["Betty"]}],"gender":"female","birthDate":"2006-01-01"},"request":{"method":"PUT","url":"Patient/a53f21cf-775e-469a-8afc-b89d70d41b20"}},{"fullUrl":"https://madie.cms.gov/Procedure/Procedure-7","resource":{"resourceType":"Procedure","id":"Procedure-7","meta":{"profile":["http://hl7.org/fhir/us/qicore/StructureDefinition/qicore-procedure"]},"extension":[{"url":"http://hl7.org/fhir/us/qicore/StructureDefinition/qicore-recorded","valueDateTime":"2023-11-01T00:00:00.000Z"}],"status":"completed","code":{"coding":[{"system":"http://www.cms.gov/Medicare/Coding/ICD10","code":"0SR9019","display":"Replacement of Right Hip Joint with Metal Synthetic Substitute, Cemented, Open Approach"}]},"subject":{"reference":"Patient/a53f21cf-775e-469a-8afc-b89d70d41b20"},"performedPeriod":{"start":"2024-10-31T00:00:00.000Z","end":"2024-10-31T01:00:00.000Z"}},"request":{"method":"PUT","url":"Procedure/Procedure-7"}},{"fullUrl":"https://madie.cms.gov/Encounter/Encounter-7","resource":{"resourceType":"Encounter","id":"Encounter-7","meta":{"profile":["http://hl7.org/fhir/us/qicore/StructureDefinition/qicore-encounter"]},"status":"finished","class":{"system":"http://terminology.hl7.org/CodeSystem/v3-ActCode","code":"AMB","display":"ambulatory"},"type":[{"coding":[{"system":"http://www.ama-assn.org/go/cpt","code":"99024","display":"Postoperative follow-up visit, normally included in the surgical package, to indicate that an evaluation and management service was performed during a postoperative period for a reason(s) related to the original procedure"}]}],"subject":{"reference":"Patient/a53f21cf-775e-469a-8afc-b89d70d41b20"},"period":{"start":"2026-01-01T00:00:00.000Z","end":"2026-01-01T00:00:00.000Z"}},"request":{"method":"PUT","url":"Encounter/Encounter-7"}},{"fullUrl":"https://madie.cms.gov/MeasureReport/a5f974e3-1c7f-40dd-9d89-09589862e6e0","resource":{"resourceType":"MeasureReport","id":"a5f974e3-1c7f-40dd-9d89-09589862e6e0","meta":{"profile":["http://hl7.org/fhir/us/cqfmeasures/StructureDefinition/test-case-cqfm"]},"contained":[{"resourceType":"Parameters","id":"b6dd25b4-96a8-4a0d-aecf-ca6eea362c62-parameters","parameter":[{"name":"subject","valueString":"a53f21cf-775e-469a-8afc-b89d70d41b20"}]}],"extension":[{"url":"http://hl7.org/fhir/us/cqfmeasures/StructureDefinition/cqfm-inputParameters","valueReference":{"reference":"#b6dd25b4-96a8-4a0d-aecf-ca6eea362c62-parameters"}},{"url":"http://hl7.org/fhir/us/cqfmeasures/StructureDefinition/cqfm-testCaseDescription","valueMarkdown":"Patient 19yo w/ a THA Procedure 10/31 during THAProcedure Interval & Post Op Visit Outpatient Encounter on 1/1 after Qualifying Encounter Interval"}],"modifierExtension":[{"url":"http://hl7.org/fhir/us/cqfmeasures/StructureDefinition/cqfm-isTestCase","valueBoolean":true}],"status":"complete","type":"individual","measure":"https://madie.cms.gov/Measure/FunctionalStatusAssessmentforTotalHipReplacementFHIR","period":{"start":"2025-01-01","end":"2025-12-31"},"group":[{"population":[{"code":{"coding":[{"system":"http://terminology.hl7.org/CodeSystem/measure-population","code":"initial-population","display":"Initial Population"}]},"count":0},{"code":{"coding":[{"system":"http://terminology.hl7.org/CodeSystem/measure-population","code":"denominator","display":"Denominator"}]},"count":0},{"code":{"coding":[{"system":"http://terminology.hl7.org/CodeSystem/measure-population","code":"denominator-exclusion","display":"Denominator Exclusion"}]},"count":0},{"code":{"coding":[{"system":"http://terminology.hl7.org/CodeSystem/measure-population","code":"numerator","display":"Numerator"}]},"count":0}]}],"evaluatedResource":[{"reference":"Patient/a53f21cf-775e-469a-8afc-b89d70d41b20"},{"reference":"Procedure/Procedure-7"},{"reference":"Encounter/Encounter-7"}]},"request":{"method":"PUT","url":"MeasureReport/a5f974e3-1c7f-40dd-9d89-09589862e6e0"}}]}