{"resourceType":"Bundle","id":"tests-8d8b51e4-0692-45e3-9e38-5591af8d9ab6-bundle","type":"transaction","entry":[{"fullUrl":"https://madie.cms.gov/Patient/8d8b51e4-0692-45e3-9e38-5591af8d9ab6","resource":{"resourceType":"Patient","id":"8d8b51e4-0692-45e3-9e38-5591af8d9ab6","meta":{"profile":["http://hl7.org/fhir/us/qicore/StructureDefinition/qicore-patient"]},"extension":[{"url":"http://hl7.org/fhir/us/core/StructureDefinition/us-core-race","extension":[{"url":"ombCategory","valueCoding":{"system":"urn:oid:2.16.840.1.113883.6.238","code":"2028-9","display":"Asian"}},{"url":"text","valueString":"Asian"}]},{"url":"http://hl7.org/fhir/us/core/StructureDefinition/us-core-ethnicity","extension":[{"url":"ombCategory","valueCoding":{"system":"urn:oid:2.16.840.1.113883.6.238","code":"2135-2","display":"Hispanic or Latino"}},{"url":"text","valueString":"Hispanic or Latino"}]}],"identifier":[{"system":"http://hospital.smarthealthit.org","value":"999999995"}],"name":[{"family":"Bertha","given":["Betty"]}],"gender":"female","birthDate":"2006-01-01"},"request":{"method":"PUT","url":"Patient/8d8b51e4-0692-45e3-9e38-5591af8d9ab6"}},{"fullUrl":"https://madie.cms.gov/Procedure/Procedure-19","resource":{"resourceType":"Procedure","id":"Procedure-19","meta":{"profile":["http://hl7.org/fhir/us/qicore/StructureDefinition/qicore-procedure"]},"extension":[{"url":"http://hl7.org/fhir/us/qicore/StructureDefinition/qicore-recorded","valueDateTime":"2023-11-01T00:00:00.000Z"}],"status":"completed","code":{"coding":[{"system":"http://www.cms.gov/Medicare/Coding/ICD10","code":"0SR9019","display":"Replacement of Right Hip Joint with Metal Synthetic Substitute, Cemented, Open Approach"}]},"subject":{"reference":"Patient/8d8b51e4-0692-45e3-9e38-5591af8d9ab6"},"performedPeriod":{"start":"2023-11-01T00:00:00.000Z","end":"2023-11-01T01:00:00.000Z"}},"request":{"method":"PUT","url":"Procedure/Procedure-19"}},{"fullUrl":"https://madie.cms.gov/Encounter/Encounter-19","resource":{"resourceType":"Encounter","id":"Encounter-19","meta":{"profile":["http://hl7.org/fhir/us/qicore/StructureDefinition/qicore-encounter"]},"status":"finished","class":{"system":"http://terminology.hl7.org/CodeSystem/v3-ActCode","code":"AMB","display":"ambulatory"},"type":[{"coding":[{"system":"http://snomed.info/sct","code":"281036007","display":"Follow-up consultation (procedure)"}]}],"subject":{"reference":"Patient/8d8b51e4-0692-45e3-9e38-5591af8d9ab6"},"period":{"start":"2024-11-01T00:00:00.000Z","end":"2024-11-01T01:15:00.000Z"}},"request":{"method":"PUT","url":"Encounter/Encounter-19"}},{"fullUrl":"https://madie.cms.gov/Procedure/Procedure-19.1","resource":{"resourceType":"Procedure","id":"Procedure-19.1","meta":{"profile":["http://hl7.org/fhir/us/qicore/StructureDefinition/qicore-procedure"]},"extension":[{"url":"http://hl7.org/fhir/us/qicore/StructureDefinition/qicore-recorded","valueDateTime":"2023-11-01T00:00:00.000Z"}],"status":"completed","code":{"coding":[{"system":"http://www.cms.gov/Medicare/Coding/ICD10","code":"0QP604Z","display":"Removal of Internal Fixation Device from Right Upper Femur, Open Approach"}]},"subject":{"reference":"Patient/8d8b51e4-0692-45e3-9e38-5591af8d9ab6"},"performedPeriod":{"start":"2023-11-01T00:00:00.000Z","end":"2023-11-01T01:00:00.000Z"}},"request":{"method":"PUT","url":"Procedure/Procedure-19.1"}},{"fullUrl":"https://madie.cms.gov/MeasureReport/655806e1-5ccd-43f1-8fd8-7e1231f3b122","resource":{"resourceType":"MeasureReport","id":"655806e1-5ccd-43f1-8fd8-7e1231f3b122","meta":{"profile":["http://hl7.org/fhir/us/cqfmeasures/StructureDefinition/test-case-cqfm"]},"contained":[{"resourceType":"Parameters","id":"76f2a24d-62f5-4c01-9477-5f9593d3500a-parameters","parameter":[{"name":"subject","valueString":"8d8b51e4-0692-45e3-9e38-5591af8d9ab6"}]}],"extension":[{"url":"http://hl7.org/fhir/us/cqfmeasures/StructureDefinition/cqfm-inputParameters","valueReference":{"reference":"#76f2a24d-62f5-4c01-9477-5f9593d3500a-parameters"}},{"url":"http://hl7.org/fhir/us/cqfmeasures/StructureDefinition/cqfm-testCaseDescription","valueMarkdown":"Patient Has Revision THAProcedure during day of THAProcedure"}],"modifierExtension":[{"url":"http://hl7.org/fhir/us/cqfmeasures/StructureDefinition/cqfm-isTestCase","valueBoolean":true}],"status":"complete","type":"individual","measure":"https://madie.cms.gov/Measure/FunctionalStatusAssessmentforTotalHipReplacementFHIR","period":{"start":"2025-01-01","end":"2025-12-31"},"group":[{"population":[{"code":{"coding":[{"system":"http://terminology.hl7.org/CodeSystem/measure-population","code":"initial-population","display":"Initial Population"}]},"count":1},{"code":{"coding":[{"system":"http://terminology.hl7.org/CodeSystem/measure-population","code":"denominator","display":"Denominator"}]},"count":1},{"code":{"coding":[{"system":"http://terminology.hl7.org/CodeSystem/measure-population","code":"denominator-exclusion","display":"Denominator Exclusion"}]},"count":1},{"code":{"coding":[{"system":"http://terminology.hl7.org/CodeSystem/measure-population","code":"numerator","display":"Numerator"}]},"count":0}]}],"evaluatedResource":[{"reference":"Patient/8d8b51e4-0692-45e3-9e38-5591af8d9ab6"},{"reference":"Procedure/Procedure-19"},{"reference":"Encounter/Encounter-19"},{"reference":"Procedure/Procedure-19.1"}]},"request":{"method":"PUT","url":"MeasureReport/655806e1-5ccd-43f1-8fd8-7e1231f3b122"}}]}