{"resourceType":"Bundle","id":"tests-4e99c198-d57e-4f79-bdda-097c52e0c5cf-bundle","type":"transaction","entry":[{"fullUrl":"https://madie.cms.gov/Patient/4e99c198-d57e-4f79-bdda-097c52e0c5cf","resource":{"resourceType":"Patient","id":"4e99c198-d57e-4f79-bdda-097c52e0c5cf","meta":{"profile":["http://hl7.org/fhir/us/qicore/StructureDefinition/qicore-patient"]},"extension":[{"url":"http://hl7.org/fhir/us/core/StructureDefinition/us-core-race","extension":[{"url":"ombCategory","valueCoding":{"system":"urn:oid:2.16.840.1.113883.6.238","code":"2028-9","display":"Asian"}},{"url":"text","valueString":"Asian"}]},{"url":"http://hl7.org/fhir/us/core/StructureDefinition/us-core-ethnicity","extension":[{"url":"ombCategory","valueCoding":{"system":"urn:oid:2.16.840.1.113883.6.238","code":"2135-2","display":"Hispanic or Latino"}},{"url":"text","valueString":"Hispanic or Latino"}]}],"identifier":[{"system":"http://hospital.smarthealthit.org","value":"999999995"}],"name":[{"family":"Bertha","given":["Betty"]}],"gender":"female","birthDate":"2006-01-01"},"request":{"method":"PUT","url":"Patient/4e99c198-d57e-4f79-bdda-097c52e0c5cf"}},{"fullUrl":"https://madie.cms.gov/Procedure/Procedure-38","resource":{"resourceType":"Procedure","id":"Procedure-38","meta":{"profile":["http://hl7.org/fhir/us/qicore/StructureDefinition/qicore-procedure"]},"extension":[{"url":"http://hl7.org/fhir/us/qicore/StructureDefinition/qicore-recorded","valueDateTime":"2023-11-01T00:00:00.000Z"}],"status":"completed","code":{"coding":[{"system":"http://www.cms.gov/Medicare/Coding/ICD10","code":"0SR9019","display":"Replacement of Right Hip Joint with Metal Synthetic Substitute, Cemented, Open Approach"}]},"subject":{"reference":"Patient/4e99c198-d57e-4f79-bdda-097c52e0c5cf"},"performedPeriod":{"start":"2023-11-01T00:00:00.000Z","end":"2023-11-01T01:00:00.000Z"}},"request":{"method":"PUT","url":"Procedure/Procedure-38"}},{"fullUrl":"https://madie.cms.gov/Encounter/Encounter-38","resource":{"resourceType":"Encounter","id":"Encounter-38","meta":{"profile":["http://hl7.org/fhir/us/qicore/StructureDefinition/qicore-encounter"]},"status":"finished","class":{"system":"http://terminology.hl7.org/CodeSystem/v3-ActCode","code":"AMB","display":"ambulatory"},"type":[{"coding":[{"system":"http://snomed.info/sct","code":"281036007","display":"Follow-up consultation (procedure)"}]}],"subject":{"reference":"Patient/4e99c198-d57e-4f79-bdda-097c52e0c5cf"},"period":{"start":"2024-11-01T00:00:00.000Z","end":"2024-11-01T01:15:00.000Z"}},"request":{"method":"PUT","url":"Encounter/Encounter-38"}},{"fullUrl":"https://madie.cms.gov/Observation/Observation-38.1-1","resource":{"resourceType":"Observation","id":"Observation-38.1-1","meta":{"profile":["http://hl7.org/fhir/us/qicore/StructureDefinition/qicore-observation"]},"status":"final","category":[{"coding":[{"system":"http://terminology.hl7.org/CodeSystem/observation-category","code":"survey"}]}],"code":{"coding":[{"system":"http://loinc.org","code":"82323-7","display":"Total interval score [HOOSJR]]"}]},"subject":{"reference":"Patient/4e99c198-d57e-4f79-bdda-097c52e0c5cf"},"effectivePeriod":{"start":"2023-08-03T00:00:00.000Z","end":"2023-08-03T01:00:00.000Z"},"valueInteger":60},"request":{"method":"PUT","url":"Observation/Observation-38.1-1"}},{"fullUrl":"https://madie.cms.gov/Observation/Observation-38.2-1","resource":{"resourceType":"Observation","id":"Observation-38.2-1","meta":{"profile":["http://hl7.org/fhir/us/qicore/StructureDefinition/qicore-observation"]},"status":"final","category":[{"coding":[{"system":"http://terminology.hl7.org/CodeSystem/observation-category","code":"survey"}]}],"code":{"coding":[{"system":"http://loinc.org","code":"82323-7","display":"Total interval score [HOOSJR]"}]},"subject":{"reference":"Patient/4e99c198-d57e-4f79-bdda-097c52e0c5cf"},"effectivePeriod":{"start":"2024-12-30T00:00:00.000Z","end":"2024-12-30T01:00:00.000Z"},"valueInteger":60},"request":{"method":"PUT","url":"Observation/Observation-38.2-1"}},{"fullUrl":"https://madie.cms.gov/MeasureReport/3dbd8a63-52e5-4883-996c-ce7022447676","resource":{"resourceType":"MeasureReport","id":"3dbd8a63-52e5-4883-996c-ce7022447676","meta":{"profile":["http://hl7.org/fhir/us/cqfmeasures/StructureDefinition/test-case-cqfm"]},"contained":[{"resourceType":"Parameters","id":"2a460da9-6968-47f9-856a-e43437bc77f9-parameters","parameter":[{"name":"subject","valueString":"4e99c198-d57e-4f79-bdda-097c52e0c5cf"}]}],"extension":[{"url":"http://hl7.org/fhir/us/cqfmeasures/StructureDefinition/cqfm-inputParameters","valueReference":{"reference":"#2a460da9-6968-47f9-856a-e43437bc77f9-parameters"}},{"url":"http://hl7.org/fhir/us/cqfmeasures/StructureDefinition/cqfm-testCaseDescription","valueMarkdown":"Patient w/ a THA Procedure 11/1, Initial Hip Assessment HOOSJr 90 days before THA Procedure(8/3), and FollowUp Hip Assessment HOOSJr 425 days after THA Procedure (12/30)"}],"modifierExtension":[{"url":"http://hl7.org/fhir/us/cqfmeasures/StructureDefinition/cqfm-isTestCase","valueBoolean":true}],"status":"complete","type":"individual","measure":"https://madie.cms.gov/Measure/FunctionalStatusAssessmentforTotalHipReplacementFHIR","period":{"start":"2025-01-01","end":"2025-12-31"},"group":[{"population":[{"code":{"coding":[{"system":"http://terminology.hl7.org/CodeSystem/measure-population","code":"initial-population","display":"Initial Population"}]},"count":1},{"code":{"coding":[{"system":"http://terminology.hl7.org/CodeSystem/measure-population","code":"denominator","display":"Denominator"}]},"count":1},{"code":{"coding":[{"system":"http://terminology.hl7.org/CodeSystem/measure-population","code":"denominator-exclusion","display":"Denominator Exclusion"}]},"count":0},{"code":{"coding":[{"system":"http://terminology.hl7.org/CodeSystem/measure-population","code":"numerator","display":"Numerator"}]},"count":1}]}],"evaluatedResource":[{"reference":"Patient/4e99c198-d57e-4f79-bdda-097c52e0c5cf"},{"reference":"Procedure/Procedure-38"},{"reference":"Encounter/Encounter-38"},{"reference":"Observation/Observation-38.1-1"},{"reference":"Observation/Observation-38.2-1"}]},"request":{"method":"PUT","url":"MeasureReport/3dbd8a63-52e5-4883-996c-ce7022447676"}}]}