{"resourceType":"Bundle","id":"tests-9ec8c23f-52eb-4e2d-aa16-c416c713f9fc-bundle","type":"transaction","entry":[{"fullUrl":"https://madie.cms.gov/Patient/9ec8c23f-52eb-4e2d-aa16-c416c713f9fc","resource":{"resourceType":"Patient","id":"9ec8c23f-52eb-4e2d-aa16-c416c713f9fc","meta":{"profile":["http://hl7.org/fhir/us/qicore/StructureDefinition/qicore-patient"]},"extension":[{"url":"http://hl7.org/fhir/us/core/StructureDefinition/us-core-race","extension":[{"url":"ombCategory","valueCoding":{"system":"urn:oid:2.16.840.1.113883.6.238","code":"2028-9","display":"Asian"}},{"url":"text","valueString":"Asian"}]},{"url":"http://hl7.org/fhir/us/core/StructureDefinition/us-core-ethnicity","extension":[{"url":"ombCategory","valueCoding":{"system":"urn:oid:2.16.840.1.113883.6.238","code":"2135-2","display":"Hispanic or Latino"}},{"url":"text","valueString":"Hispanic or Latino"}]}],"identifier":[{"system":"http://hospital.smarthealthit.org","value":"999999995"}],"name":[{"family":"Bertha","given":["Betty"]}],"gender":"female","birthDate":"2006-01-01"},"request":{"method":"PUT","url":"Patient/9ec8c23f-52eb-4e2d-aa16-c416c713f9fc"}},{"fullUrl":"https://madie.cms.gov/Procedure/Procedure-6","resource":{"resourceType":"Procedure","id":"Procedure-6","meta":{"profile":["http://hl7.org/fhir/us/qicore/StructureDefinition/qicore-procedure"]},"extension":[{"url":"http://hl7.org/fhir/us/qicore/StructureDefinition/qicore-recorded","valueDateTime":"2023-10-31T00:00:00.000Z"}],"status":"completed","code":{"coding":[{"system":"http://www.cms.gov/Medicare/Coding/ICD10","code":"0SR9019","display":"Replacement of Right Hip Joint with Metal Synthetic Substitute, Cemented, Open Approach"}]},"subject":{"reference":"Patient/9ec8c23f-52eb-4e2d-aa16-c416c713f9fc"},"performedPeriod":{"start":"2023-10-31T00:00:00.000Z","end":"2023-10-31T01:00:00.000Z"}},"request":{"method":"PUT","url":"Procedure/Procedure-6"}},{"fullUrl":"https://madie.cms.gov/Encounter/Encounter-6","resource":{"resourceType":"Encounter","id":"Encounter-6","meta":{"profile":["http://hl7.org/fhir/us/qicore/StructureDefinition/qicore-encounter"]},"status":"finished","class":{"system":"http://terminology.hl7.org/CodeSystem/v3-ActCode","code":"AMB","display":"ambulatory"},"type":[{"coding":[{"system":"http://snomed.info/sct","code":"281036007","display":"Follow-up consultation (procedure)"}]}],"subject":{"reference":"Patient/9ec8c23f-52eb-4e2d-aa16-c416c713f9fc"},"period":{"start":"2024-11-01T00:00:00.000Z","end":"2024-11-01T01:15:00.000Z"}},"request":{"method":"PUT","url":"Encounter/Encounter-6"}},{"fullUrl":"https://madie.cms.gov/MeasureReport/2c3ceb00-3b11-47ba-8ef2-b84eb5e48cfa","resource":{"resourceType":"MeasureReport","id":"2c3ceb00-3b11-47ba-8ef2-b84eb5e48cfa","meta":{"profile":["http://hl7.org/fhir/us/cqfmeasures/StructureDefinition/test-case-cqfm"]},"contained":[{"resourceType":"Parameters","id":"008cefce-a472-40fa-b98a-201650e88821-parameters","parameter":[{"name":"subject","valueString":"9ec8c23f-52eb-4e2d-aa16-c416c713f9fc"}]}],"extension":[{"url":"http://hl7.org/fhir/us/cqfmeasures/StructureDefinition/cqfm-inputParameters","valueReference":{"reference":"#008cefce-a472-40fa-b98a-201650e88821-parameters"}},{"url":"http://hl7.org/fhir/us/cqfmeasures/StructureDefinition/cqfm-testCaseDescription","valueMarkdown":"Patient 19yo w/ a THA Procedure 10/31 before THAProcedure Interval & Post Op Visit Outpatient Encounter on 11/01 during Qualifying Encounter Interval"}],"modifierExtension":[{"url":"http://hl7.org/fhir/us/cqfmeasures/StructureDefinition/cqfm-isTestCase","valueBoolean":true}],"status":"complete","type":"individual","measure":"https://madie.cms.gov/Measure/FunctionalStatusAssessmentforTotalHipReplacementFHIR","period":{"start":"2025-01-01","end":"2025-12-31"},"group":[{"population":[{"code":{"coding":[{"system":"http://terminology.hl7.org/CodeSystem/measure-population","code":"initial-population","display":"Initial Population"}]},"count":0},{"code":{"coding":[{"system":"http://terminology.hl7.org/CodeSystem/measure-population","code":"denominator","display":"Denominator"}]},"count":0},{"code":{"coding":[{"system":"http://terminology.hl7.org/CodeSystem/measure-population","code":"denominator-exclusion","display":"Denominator Exclusion"}]},"count":0},{"code":{"coding":[{"system":"http://terminology.hl7.org/CodeSystem/measure-population","code":"numerator","display":"Numerator"}]},"count":0}]}],"evaluatedResource":[{"reference":"Patient/9ec8c23f-52eb-4e2d-aa16-c416c713f9fc"},{"reference":"Procedure/Procedure-6"},{"reference":"Encounter/Encounter-6"}]},"request":{"method":"PUT","url":"MeasureReport/2c3ceb00-3b11-47ba-8ef2-b84eb5e48cfa"}}]}