{"resourceType":"Bundle","id":"tests-7e37f28a-b7a9-46bf-a509-2baf3b260ddd-bundle","type":"transaction","entry":[{"fullUrl":"https://madie.cms.gov/Patient/7e37f28a-b7a9-46bf-a509-2baf3b260ddd","resource":{"resourceType":"Patient","id":"7e37f28a-b7a9-46bf-a509-2baf3b260ddd","meta":{"profile":["http://hl7.org/fhir/us/qicore/StructureDefinition/qicore-patient"]},"extension":[{"url":"http://hl7.org/fhir/us/core/StructureDefinition/us-core-race","extension":[{"url":"ombCategory","valueCoding":{"system":"urn:oid:2.16.840.1.113883.6.238","code":"2028-9","display":"Asian"}},{"url":"text","valueString":"Asian"}]},{"url":"http://hl7.org/fhir/us/core/StructureDefinition/us-core-ethnicity","extension":[{"url":"ombCategory","valueCoding":{"system":"urn:oid:2.16.840.1.113883.6.238","code":"2135-2","display":"Hispanic or Latino"}},{"url":"text","valueString":"Hispanic or Latino"}]}],"identifier":[{"system":"http://hospital.smarthealthit.org","value":"999999995"}],"name":[{"family":"Bertha","given":["Betty"]}],"gender":"female","birthDate":"2006-01-01"},"request":{"method":"PUT","url":"Patient/7e37f28a-b7a9-46bf-a509-2baf3b260ddd"}},{"fullUrl":"https://madie.cms.gov/Procedure/Procedure-9","resource":{"resourceType":"Procedure","id":"Procedure-9","meta":{"profile":["http://hl7.org/fhir/us/qicore/StructureDefinition/qicore-procedure"]},"extension":[{"url":"http://hl7.org/fhir/us/qicore/StructureDefinition/qicore-recorded","valueDateTime":"2025-01-15T00:00:00.000Z"}],"status":"completed","code":{"coding":[{"system":"http://www.cms.gov/Medicare/Coding/ICD10","code":"0SR9019","display":"Replacement of Right Hip Joint with Metal Synthetic Substitute, Cemented, Open Approach"}]},"subject":{"reference":"Patient/7e37f28a-b7a9-46bf-a509-2baf3b260ddd"},"performedPeriod":{"start":"2023-11-01T00:00:00.000Z","end":"2023-11-01T01:00:00.000Z"}},"request":{"method":"PUT","url":"Procedure/Procedure-9"}},{"fullUrl":"https://madie.cms.gov/Encounter/Encounter-9","resource":{"resourceType":"Encounter","id":"Encounter-9","meta":{"profile":["http://hl7.org/fhir/us/qicore/StructureDefinition/qicore-encounter"]},"status":"finished","class":{"system":"http://terminology.hl7.org/CodeSystem/v3-ActCode","code":"AMB","display":"ambulatory"},"type":[{"coding":[{"system":"http://snomed.info/sct","code":"281036007","display":"Follow-up consultation (procedure)"}]}],"subject":{"reference":"Patient/7e37f28a-b7a9-46bf-a509-2baf3b260ddd"},"period":{"start":"2024-11-01T00:00:00.000Z","end":"2024-11-01T01:15:00.000Z"}},"request":{"method":"PUT","url":"Encounter/Encounter-9"}},{"fullUrl":"https://madie.cms.gov/Encounter/Encounter-9.1","resource":{"resourceType":"Encounter","id":"Encounter-9.1","meta":{"profile":["http://hl7.org/fhir/us/qicore/StructureDefinition/qicore-encounter"]},"status":"finished","class":{"system":"http://terminology.hl7.org/CodeSystem/v3-ActCode","code":"AMB","display":"ambulatory"},"type":[{"coding":[{"system":"http://snomed.info/sct","code":"183452005","display":"Emergency hospital admission (procedure)"}]}],"subject":{"reference":"Patient/7e37f28a-b7a9-46bf-a509-2baf3b260ddd"},"period":{"start":"2024-11-01T00:00:00.000Z","end":"2025-01-01T01:00:00.000Z"},"hospitalization":{"dischargeDisposition":{"coding":[{"system":"http://snomed.info/sct","code":"428371000124100","display":"Discharge to healthcare facility for hospice care (procedure)"}]}}},"request":{"method":"PUT","url":"Encounter/Encounter-9.1"}},{"fullUrl":"https://madie.cms.gov/MeasureReport/869fa627-998f-4fea-a262-514327804c61","resource":{"resourceType":"MeasureReport","id":"869fa627-998f-4fea-a262-514327804c61","meta":{"profile":["http://hl7.org/fhir/us/cqfmeasures/StructureDefinition/test-case-cqfm"]},"contained":[{"resourceType":"Parameters","id":"a855f3b8-cb39-40b7-b1dc-7c37446ab610-parameters","parameter":[{"name":"subject","valueString":"7e37f28a-b7a9-46bf-a509-2baf3b260ddd"}]}],"extension":[{"url":"http://hl7.org/fhir/us/cqfmeasures/StructureDefinition/cqfm-inputParameters","valueReference":{"reference":"#a855f3b8-cb39-40b7-b1dc-7c37446ab610-parameters"}},{"url":"http://hl7.org/fhir/us/cqfmeasures/StructureDefinition/cqfm-testCaseDescription","valueMarkdown":"Patient with Hospice Services during MP"}],"modifierExtension":[{"url":"http://hl7.org/fhir/us/cqfmeasures/StructureDefinition/cqfm-isTestCase","valueBoolean":true}],"status":"complete","type":"individual","measure":"https://madie.cms.gov/Measure/FunctionalStatusAssessmentforTotalHipReplacementFHIR","period":{"start":"2025-01-01","end":"2025-12-31"},"group":[{"population":[{"code":{"coding":[{"system":"http://terminology.hl7.org/CodeSystem/measure-population","code":"initial-population","display":"Initial Population"}]},"count":1},{"code":{"coding":[{"system":"http://terminology.hl7.org/CodeSystem/measure-population","code":"denominator","display":"Denominator"}]},"count":1},{"code":{"coding":[{"system":"http://terminology.hl7.org/CodeSystem/measure-population","code":"denominator-exclusion","display":"Denominator Exclusion"}]},"count":1},{"code":{"coding":[{"system":"http://terminology.hl7.org/CodeSystem/measure-population","code":"numerator","display":"Numerator"}]},"count":0}]}],"evaluatedResource":[{"reference":"Patient/7e37f28a-b7a9-46bf-a509-2baf3b260ddd"},{"reference":"Procedure/Procedure-9"},{"reference":"Encounter/Encounter-9"},{"reference":"Encounter/Encounter-9.1"}]},"request":{"method":"PUT","url":"MeasureReport/869fa627-998f-4fea-a262-514327804c61"}}]}