{"resourceType":"Bundle","id":"tests-aa9c7e3e-6d1f-47c5-8cdf-31c2253a8930-bundle","type":"transaction","entry":[{"fullUrl":"https://madie.cms.gov/Patient/aa9c7e3e-6d1f-47c5-8cdf-31c2253a8930","resource":{"resourceType":"Patient","id":"aa9c7e3e-6d1f-47c5-8cdf-31c2253a8930","meta":{"profile":["http://hl7.org/fhir/us/qicore/StructureDefinition/qicore-patient"]},"extension":[{"url":"http://hl7.org/fhir/us/core/StructureDefinition/us-core-race","extension":[{"url":"ombCategory","valueCoding":{"system":"urn:oid:2.16.840.1.113883.6.238","code":"2028-9","display":"Asian"}},{"url":"text","valueString":"Asian"}]},{"url":"http://hl7.org/fhir/us/core/StructureDefinition/us-core-ethnicity","extension":[{"url":"ombCategory","valueCoding":{"system":"urn:oid:2.16.840.1.113883.6.238","code":"2135-2","display":"Hispanic or Latino"}},{"url":"text","valueString":"Hispanic or Latino"}]}],"identifier":[{"system":"http://hospital.smarthealthit.org","value":"999999995"}],"name":[{"family":"Bertha","given":["Betty"]}],"gender":"female","birthDate":"2006-01-01"},"request":{"method":"PUT","url":"Patient/aa9c7e3e-6d1f-47c5-8cdf-31c2253a8930"}},{"fullUrl":"https://madie.cms.gov/Procedure/Procedure-14","resource":{"resourceType":"Procedure","id":"Procedure-14","meta":{"profile":["http://hl7.org/fhir/us/qicore/StructureDefinition/qicore-procedure"]},"extension":[{"url":"http://hl7.org/fhir/us/qicore/StructureDefinition/qicore-recorded","valueDateTime":"2025-01-15T00:00:00.000Z"}],"status":"completed","code":{"coding":[{"system":"http://www.cms.gov/Medicare/Coding/ICD10","code":"0SR9019","display":"Replacement of Right Hip Joint with Metal Synthetic Substitute, Cemented, Open Approach"}]},"subject":{"reference":"Patient/aa9c7e3e-6d1f-47c5-8cdf-31c2253a8930"},"performedPeriod":{"start":"2023-11-01T00:00:00.000Z","end":"2023-11-01T01:00:00.000Z"}},"request":{"method":"PUT","url":"Procedure/Procedure-14"}},{"fullUrl":"https://madie.cms.gov/Encounter/Encounter-14","resource":{"resourceType":"Encounter","id":"Encounter-14","meta":{"profile":["http://hl7.org/fhir/us/qicore/StructureDefinition/qicore-encounter"]},"status":"finished","class":{"system":"http://terminology.hl7.org/CodeSystem/v3-ActCode","code":"AMB","display":"ambulatory"},"type":[{"coding":[{"system":"http://snomed.info/sct","code":"281036007","display":"Follow-up consultation (procedure)"}]}],"subject":{"reference":"Patient/aa9c7e3e-6d1f-47c5-8cdf-31c2253a8930"},"period":{"start":"2024-11-01T00:00:00.000Z","end":"2024-11-01T01:15:00.000Z"}},"request":{"method":"PUT","url":"Encounter/Encounter-14"}},{"fullUrl":"https://madie.cms.gov/Condition/Condition-14","resource":{"resourceType":"Condition","id":"Condition-14","meta":{"profile":["http://hl7.org/fhir/us/qicore/StructureDefinition/qicore-condition"]},"clinicalStatus":{"coding":[{"system":"http://terminology.hl7.org/CodeSystem/condition-clinical","code":"active"}]},"category":[{"coding":[{"system":"http://terminology.hl7.org/CodeSystem/condition-category","code":"problem-list-item","display":"Problem List Item"}]}],"code":{"coding":[{"system":"http://snomed.info/sct","code":"10624611000119102","display":"Stress fracture of lateral condyle of right femur (disorder)”) "}]},"subject":{"reference":"Patient/aa9c7e3e-6d1f-47c5-8cdf-31c2253a8930"},"onsetDateTime":"2024-10-30T11:59:59.000Z"},"request":{"method":"PUT","url":"Condition/Condition-14"}},{"fullUrl":"https://madie.cms.gov/MeasureReport/6b306772-7ca0-4825-bbd2-54e600e8991e","resource":{"resourceType":"MeasureReport","id":"6b306772-7ca0-4825-bbd2-54e600e8991e","meta":{"profile":["http://hl7.org/fhir/us/cqfmeasures/StructureDefinition/test-case-cqfm"]},"contained":[{"resourceType":"Parameters","id":"18f99712-6afc-4648-bb4b-a7400f42bfb1-parameters","parameter":[{"name":"subject","valueString":"aa9c7e3e-6d1f-47c5-8cdf-31c2253a8930"}]}],"extension":[{"url":"http://hl7.org/fhir/us/cqfmeasures/StructureDefinition/cqfm-inputParameters","valueReference":{"reference":"#18f99712-6afc-4648-bb4b-a7400f42bfb1-parameters"}},{"url":"http://hl7.org/fhir/us/cqfmeasures/StructureDefinition/cqfm-testCaseDescription","valueMarkdown":"Patient has Dx of 1 or ore Lower Body Fractures 24 hrs and 1 second before start of THA Procedure"}],"modifierExtension":[{"url":"http://hl7.org/fhir/us/cqfmeasures/StructureDefinition/cqfm-isTestCase","valueBoolean":true}],"status":"complete","type":"individual","measure":"https://madie.cms.gov/Measure/FunctionalStatusAssessmentforTotalHipReplacementFHIR","period":{"start":"2025-01-01","end":"2025-12-31"},"group":[{"population":[{"code":{"coding":[{"system":"http://terminology.hl7.org/CodeSystem/measure-population","code":"initial-population","display":"Initial Population"}]},"count":1},{"code":{"coding":[{"system":"http://terminology.hl7.org/CodeSystem/measure-population","code":"denominator","display":"Denominator"}]},"count":1},{"code":{"coding":[{"system":"http://terminology.hl7.org/CodeSystem/measure-population","code":"denominator-exclusion","display":"Denominator Exclusion"}]},"count":0},{"code":{"coding":[{"system":"http://terminology.hl7.org/CodeSystem/measure-population","code":"numerator","display":"Numerator"}]},"count":0}]}],"evaluatedResource":[{"reference":"Patient/aa9c7e3e-6d1f-47c5-8cdf-31c2253a8930"},{"reference":"Procedure/Procedure-14"},{"reference":"Encounter/Encounter-14"},{"reference":"Condition/Condition-14"}]},"request":{"method":"PUT","url":"MeasureReport/6b306772-7ca0-4825-bbd2-54e600e8991e"}}]}