{"resourceType":"Bundle","id":"tests-66e9eb42-457d-4797-b8bb-17d2e7a02658-bundle","type":"transaction","entry":[{"fullUrl":"https://madie.cms.gov/Patient/66e9eb42-457d-4797-b8bb-17d2e7a02658","resource":{"resourceType":"Patient","id":"66e9eb42-457d-4797-b8bb-17d2e7a02658","meta":{"profile":["http://hl7.org/fhir/us/qicore/StructureDefinition/qicore-patient"]},"text":{"status":"generated","div":"<div xmlns=\"http://www.w3.org/1999/xhtml\"><div class=\"hapiHeaderText\">NoResult <b>SODIUMFAIL </b></div><table class=\"hapiPropertyTable\"><tbody><tr><td>Identifier</td><td>eb360e3679224871964d5b3575a59ceb3c2f6260372fb1be3ea61ac84d2937cf</td></tr><tr><td>Date of birth</td><td><span>15 June 1956</span></td></tr></tbody></table></div>"},"extension":[{"url":"http://hl7.org/fhir/us/core/StructureDefinition/us-core-race","extension":[{"url":"ombCategory","valueCoding":{"system":"urn:oid:2.16.840.1.113883.6.238","code":"1002-5","display":"American Indian or Alaska Native","userSelected":true}},{"url":"text","valueString":"American Indian or Alaska Native"}]},{"url":"http://hl7.org/fhir/us/core/StructureDefinition/us-core-ethnicity","extension":[{"url":"ombCategory","valueCoding":{"system":"urn:oid:2.16.840.1.113883.6.238","code":"2186-5","display":"Not Hispanic or Latino","userSelected":true}},{"url":"text","valueString":"Not Hispanic or Latino"}]}],"identifier":[{"type":{"coding":[{"system":"http://terminology.hl7.org/CodeSystem/v2-0203","code":"MR"}]},"system":"https://bonnie-fhir.healthit.gov/","value":"63ec096bccb3770120fea0ad"}],"active":true,"name":[{"use":"usual","family":"EachPerformedInSeparateEncounters","given":["AllExamsPass"]}],"gender":"male","birthDate":"1959-07-01"},"request":{"method":"PUT","url":"Patient/66e9eb42-457d-4797-b8bb-17d2e7a02658"}},{"fullUrl":"https://madie.cms.gov/Encounter/5f996a69b977ef0000c0305a","resource":{"resourceType":"Encounter","id":"29cce9b9-0a69-457c-85cb-f6c44d368c63","meta":{"profile":["http://hl7.org/fhir/us/qicore/StructureDefinition/qicore-encounter"]},"status":"finished","class":{"system":"http://terminology.hl7.org/CodeSystem/v3-ActCode","code":"IMP","display":"inpatient encounter","userSelected":true},"type":[{"coding":[{"system":"http://snomed.info/sct","code":"183452005"}]}],"subject":{"reference":"Patient/66e9eb42-457d-4797-b8bb-17d2e7a02658"},"period":{"start":"2025-07-01T12:01:00.000+00:00","end":"2025-07-04T08:15:00.000+00:00"}},"request":{"method":"PUT","url":"Encounter/29cce9b9-0a69-457c-85cb-f6c44d368c63"}},{"fullUrl":"https://madie.cms.gov/Encounter/5f996a69b977ef0000c0305a1","resource":{"resourceType":"Encounter","id":"4773a2e8-f5c6-42f1-a8f0-b14b693cfaf7","meta":{"profile":["http://hl7.org/fhir/us/qicore/StructureDefinition/qicore-encounter"]},"status":"finished","class":{"system":"http://terminology.hl7.org/CodeSystem/v3-ActCode","code":"IMP","display":"inpatient encounter","userSelected":true},"type":[{"coding":[{"system":"http://snomed.info/sct","code":"183452005","display":"Emergency hospital admission (procedure)"}]}],"subject":{"reference":"Patient/66e9eb42-457d-4797-b8bb-17d2e7a02658"},"period":{"start":"2026-02-14T12:08:00.000+00:00","end":"2026-02-16T10:00:00.000+00:00"}},"request":{"method":"PUT","url":"Encounter/4773a2e8-f5c6-42f1-a8f0-b14b693cfaf7"}},{"fullUrl":"https://madie.cms.gov/Encounter/5f996a69b977ef0000c0305a2","resource":{"resourceType":"Encounter","id":"58a99127-2309-4910-ae0f-0905199f1e12","meta":{"profile":["http://hl7.org/fhir/us/qicore/StructureDefinition/qicore-encounter"]},"status":"finished","class":{"system":"http://terminology.hl7.org/CodeSystem/v3-ActCode","code":"IMP","display":"inpatient encounter","userSelected":true},"type":[{"coding":[{"system":"http://snomed.info/sct","code":"32485007","display":"Hospital admission (procedure)"}]}],"subject":{"reference":"Patient/66e9eb42-457d-4797-b8bb-17d2e7a02658"},"period":{"start":"2026-01-04T08:00:00.000+00:00","end":"2026-01-08T08:15:00.000+00:00"}},"request":{"method":"PUT","url":"Encounter/58a99127-2309-4910-ae0f-0905199f1e12"}},{"fullUrl":"https://madie.cms.gov/Encounter/5f996a69b977ef0000c0305a3","resource":{"resourceType":"Encounter","id":"a70a8faf-0e8f-48b5-a6ac-72169c19ba0e","meta":{"profile":["http://hl7.org/fhir/us/qicore/StructureDefinition/qicore-encounter"]},"status":"finished","class":{"system":"http://terminology.hl7.org/CodeSystem/v3-ActCode","code":"EMER","display":"emergency","userSelected":true},"type":[{"coding":[{"system":"http://snomed.info/sct","code":"4525004","display":"Emergency department patient visit (procedure)"}]}],"subject":{"reference":"Patient/66e9eb42-457d-4797-b8bb-17d2e7a02658"},"period":{"start":"2026-06-27T04:00:00.000+00:00","end":"2026-06-27T15:30:00.000+00:00"}},"request":{"method":"PUT","url":"Encounter/a70a8faf-0e8f-48b5-a6ac-72169c19ba0e"}},{"fullUrl":"https://madie.cms.gov/Encounter/5f996a69b977ef0000c0305a4","resource":{"resourceType":"Encounter","id":"d26283f3-5618-4f41-8c1d-960161a9f37e","meta":{"profile":["http://hl7.org/fhir/us/qicore/StructureDefinition/qicore-encounter"]},"status":"finished","class":{"system":"http://terminology.hl7.org/CodeSystem/v3-ActCode","code":"IMP","display":"inpatient encounter","userSelected":true},"type":[{"coding":[{"system":"http://snomed.info/sct","code":"183452005","display":"Emergency hospital admission (procedure)"}]}],"subject":{"reference":"Patient/66e9eb42-457d-4797-b8bb-17d2e7a02658"},"period":{"start":"2026-06-27T15:30:00.000+00:00","end":"2026-06-30T08:23:59.000+00:00"}},"request":{"method":"PUT","url":"Encounter/d26283f3-5618-4f41-8c1d-960161a9f37e"}},{"fullUrl":"https://madie.cms.gov/Observation/5b7c5511b84846299c81a50f","resource":{"resourceType":"Observation","id":"4392b843-0947-4be4-ba02-d69a272f87dc","meta":{"profile":["http://hl7.org/fhir/StructureDefinition/resprate"]},"status":"final","category":[{"coding":[{"system":"http://terminology.hl7.org/CodeSystem/observation-category","code":"vital-signs","display":"Vital Signs","userSelected":true}]}],"code":{"coding":[{"system":"http://loinc.org","code":"9279-1","display":"Respiratory rate"}]},"subject":{"reference":"Patient/66e9eb42-457d-4797-b8bb-17d2e7a02658"},"effectiveDateTime":"2026-02-14T09:59:00.000+00:00","issued":"2026-02-14T09:59:00.000Z","valueQuantity":{"value":16.0,"unit":"/min","system":"http://unitsofmeasure.org","code":"/min"}},"request":{"method":"PUT","url":"Observation/4392b843-0947-4be4-ba02-d69a272f87dc"}},{"fullUrl":"https://madie.cms.gov/Observation/5b5f894cb848461e71030a0X","resource":{"resourceType":"Observation","id":"b51196e1-45da-4c82-8adf-4cc779687a86","meta":{"profile":["http://hl7.org/fhir/StructureDefinition/heartrate"]},"status":"final","category":[{"coding":[{"system":"http://terminology.hl7.org/CodeSystem/observation-category","code":"vital-signs","display":"Vital Signs","userSelected":true}]}],"code":{"coding":[{"system":"http://loinc.org","code":"8867-4","display":"Heart rate"}]},"subject":{"reference":"Patient/66e9eb42-457d-4797-b8bb-17d2e7a02658"},"effectiveDateTime":"2026-01-04T08:00:00.000+00:00","valueQuantity":{"value":130,"unit":"/min","system":"http://unitsofmeasure.org","code":"/min"}},"request":{"method":"PUT","url":"Observation/b51196e1-45da-4c82-8adf-4cc779687a86"}},{"fullUrl":"https://madie.cms.gov/Observation/5b5f894cb848461e71030a0Y","resource":{"resourceType":"Observation","id":"b9f3c7d2-e46b-4e1d-92ae-83bca81c48a3","meta":{"profile":["http://hl7.org/fhir/StructureDefinition/bp"]},"status":"final","category":[{"coding":[{"system":"http://terminology.hl7.org/CodeSystem/observation-category","code":"vital-signs","display":"Vital Signs"}],"text":"Vital Signs"}],"code":{"coding":[{"system":"http://loinc.org","code":"85354-9","display":"Blood pressure panel"}]},"subject":{"reference":"Patient/66e9eb42-457d-4797-b8bb-17d2e7a02658"},"effectiveDateTime":"2025-06-30T13:00:00.000+00:00","component":[{"code":{"coding":[{"system":"http://loinc.org","code":"8480-6","display":"Systolic blood pressure"}]},"valueQuantity":{"value":131,"unit":"mmHg","system":"http://unitsofmeasure.org","code":"mm[Hg]"}},{"code":{"coding":[{"system":"http://loinc.org","code":"8462-4","display":"Diastolic blood pressure"}]},"valueQuantity":{"value":80,"unit":"mmHg","system":"http://unitsofmeasure.org","code":"mm[Hg]"}}]},"request":{"method":"PUT","url":"Observation/b9f3c7d2-e46b-4e1d-92ae-83bca81c48a3"}},{"fullUrl":"https://madie.cms.gov/Observation/5b7c5683b84846299c81a5e1","resource":{"resourceType":"Observation","id":"27fcfb6b-fbc9-4a78-ab8e-f805c268a44c","meta":{"profile":["http://hl7.org/fhir/StructureDefinition/bodytemp"]},"status":"amended","category":[{"coding":[{"system":"http://terminology.hl7.org/CodeSystem/observation-category","code":"vital-signs","display":"Vital Signs","userSelected":true}]}],"code":{"coding":[{"system":"http://loinc.org","code":"8310-5","display":"Body temperature"}]},"subject":{"reference":"Patient/66e9eb42-457d-4797-b8bb-17d2e7a02658"},"effectiveDateTime":"2026-06-27T15:30:00.000+00:00","valueQuantity":{"value":98.6,"unit":"[degF]","system":"http://unitsofmeasure.org","code":"[degF]"}},"request":{"method":"PUT","url":"Observation/27fcfb6b-fbc9-4a78-ab8e-f805c268a44c"}},{"fullUrl":"https://madie.cms.gov/Coverage/5f996a4ab977ef0000c0304f","resource":{"resourceType":"Coverage","id":"62e538fc-fbac-4a93-a2e5-aa148e859913","meta":{"profile":["http://hl7.org/fhir/us/qicore/StructureDefinition/qicore-coverage"]},"status":"active","type":{"coding":[{"system":"https://nahdo.org/sopt","version":"1.0.1","code":"1","display":"Medicare payer","userSelected":true}]},"beneficiary":{"reference":"Patient/66e9eb42-457d-4797-b8bb-17d2e7a02658"},"payor":[{"reference":"Organization/80573fa1-cf83-4e9a-8f21-86a018689678"}]},"request":{"method":"PUT","url":"Coverage/62e538fc-fbac-4a93-a2e5-aa148e859913"}},{"fullUrl":"https://madie.cms.gov/Organization/123456","resource":{"resourceType":"Organization","id":"80573fa1-cf83-4e9a-8f21-86a018689678","meta":{"profile":["http://hl7.org/fhir/us/qicore/StructureDefinition/qicore-organization"]},"identifier":[{"use":"temp","system":"urn:oid:2.16.840.1.113883.4.4","value":"21-3259825"}],"active":true,"type":[{"coding":[{"system":"http://terminology.hl7.org/CodeSystem/organization-type","code":"pay","display":"Payer"}]}],"name":"Blue Cross Blue Shield of Texas","telecom":[{"system":"phone","value":"(+1) 972-766-6900"}],"address":[{"use":"billing","type":"postal","line":["P.O. Box 660044"],"city":"Dallas","state":"TX","postalCode":"75266-0044","country":"USA"}]},"request":{"method":"PUT","url":"Organization/80573fa1-cf83-4e9a-8f21-86a018689678"}},{"fullUrl":"https://madie.cms.gov/Practitioner/practitioner-123456","resource":{"resourceType":"Practitioner","id":"e233db74-9c43-4bb5-8cea-c451058e44d4","meta":{"profile":["http://hl7.org/fhir/us/qicore/StructureDefinition/qicore-practitioner"]},"identifier":[{"system":"http://hl7.org/fhir/sid/us-npi","value":"123456"}],"name":[{"family":"Evil","prefix":["Dr"]}]},"request":{"method":"PUT","url":"Practitioner/e233db74-9c43-4bb5-8cea-c451058e44d4"}},{"fullUrl":"https://madie.cms.gov/MeasureReport/ed6acb31-834c-4d90-abf3-6ffd8008b28b","resource":{"resourceType":"MeasureReport","id":"ed6acb31-834c-4d90-abf3-6ffd8008b28b","meta":{"profile":["http://hl7.org/fhir/us/cqfmeasures/StructureDefinition/test-case-cqfm"]},"contained":[{"resourceType":"Parameters","id":"18085113-6cc9-4ad2-a21b-02f212b546f5-parameters","parameter":[{"name":"subject","valueString":"66e9eb42-457d-4797-b8bb-17d2e7a02658"}]}],"extension":[{"url":"http://hl7.org/fhir/us/cqfmeasures/StructureDefinition/cqfm-inputParameters","valueReference":{"reference":"#18085113-6cc9-4ad2-a21b-02f212b546f5-parameters"}},{"url":"http://hl7.org/fhir/us/cqfmeasures/StructureDefinition/cqfm-testCaseDescription","valueMarkdown":"Enc. 1: starts 1st day of MP (7/1), has Medicare and is 65 today, systolic BP\nEnc. 2: starts last day of CY, resp rate\nEnc. 3: starts 4th day of following year, heart rate\nEnc. 4: Surgery then inpatient, ends last day of MP (6/30),  temperature \n "}],"modifierExtension":[{"url":"http://hl7.org/fhir/us/cqfmeasures/StructureDefinition/cqfm-isTestCase","valueBoolean":true}],"status":"complete","type":"individual","measure":"https://madie.cms.gov/Measure/HybridHospitalWideReadmissionFHIR","period":{"start":"2025-07-01","end":"2026-06-30"},"group":[{"population":[{"code":{"coding":[{"system":"http://terminology.hl7.org/CodeSystem/measure-population","code":"initial-population","display":"Initial Population"}]},"count":4}]}]},"request":{"method":"PUT","url":"MeasureReport/ed6acb31-834c-4d90-abf3-6ffd8008b28b"}}]}