{"resourceType":"Bundle","id":"tests-387330f1-1023-4576-9994-626c196d2c01-bundle","type":"transaction","entry":[{"fullUrl":"https://madie.cms.gov/Patient/387330f1-1023-4576-9994-626c196d2c01","resource":{"resourceType":"Patient","id":"387330f1-1023-4576-9994-626c196d2c01","meta":{"profile":["http://hl7.org/fhir/us/qicore/StructureDefinition/qicore-patient"]},"text":{"status":"generated","div":"<div xmlns=\"http://www.w3.org/1999/xhtml\"><div class=\"hapiHeaderText\">LT65Yrs <b>IPFAIL </b></div><table class=\"hapiPropertyTable\"><tbody><tr><td>Identifier</td><td>03c3bdaef06b3f281a8ed34325059b1306340d0e1ed2849915ba5f5a7c4f080a</td></tr><tr><td>Date of birth</td><td><span>22 June 1960</span></td></tr></tbody></table></div>"},"extension":[{"url":"http://hl7.org/fhir/us/core/StructureDefinition/us-core-race","extension":[{"url":"ombCategory","valueCoding":{"system":"urn:oid:2.16.840.1.113883.6.238","code":"2106-3","display":"White","userSelected":true}},{"url":"text","valueString":"White"}]},{"url":"http://hl7.org/fhir/us/core/StructureDefinition/us-core-ethnicity","extension":[{"url":"ombCategory","valueCoding":{"system":"urn:oid:2.16.840.1.113883.6.238","code":"2186-5","display":"Not Hispanic or Latino","userSelected":true}},{"url":"text","valueString":"Not Hispanic or Latino"}]}],"identifier":[{"type":{"coding":[{"system":"http://terminology.hl7.org/CodeSystem/v2-0203","code":"MR"}]},"system":"https://bonnie-fhir.healthit.gov/","value":"63ec096fccb3770120fea42f"}],"active":true,"name":[{"use":"usual","family":"IPFail","given":["TooYoung"]}],"gender":"male","birthDate":"1962-06-28"},"request":{"method":"PUT","url":"Patient/387330f1-1023-4576-9994-626c196d2c01"}},{"fullUrl":"https://madie.cms.gov/Encounter/5e3b30e0de71730000da2198","resource":{"resourceType":"Encounter","id":"3302c202-50be-41da-9e4d-afc85a4467c1","meta":{"profile":["http://hl7.org/fhir/us/qicore/StructureDefinition/qicore-encounter"]},"status":"finished","class":{"system":"http://terminology.hl7.org/CodeSystem/v3-ActCode","code":"IMP","display":"inpatient encounter","userSelected":true},"type":[{"coding":[{"system":"http://snomed.info/sct","code":"183452005"}]}],"subject":{"reference":"Patient/387330f1-1023-4576-9994-626c196d2c01"},"period":{"start":"2026-06-28T08:00:00+00:00","end":"2026-06-30T08:15:00+00:00"},"length":{"value":2,"unit":"days"}},"request":{"method":"PUT","url":"Encounter/3302c202-50be-41da-9e4d-afc85a4467c1"}},{"fullUrl":"https://madie.cms.gov/Coverage/5f996b7524ad1d0000694015","resource":{"resourceType":"Coverage","id":"94899006-47b7-48b6-bba1-d45ea48eecb7","meta":{"profile":["http://hl7.org/fhir/us/qicore/StructureDefinition/qicore-coverage"]},"status":"active","type":{"coding":[{"system":"https://nahdo.org/sopt","version":"1.0.1","code":"1","display":"Medicare payer","userSelected":true}]},"beneficiary":{"reference":"Patient/387330f1-1023-4576-9994-626c196d2c01"},"payor":[{"reference":"Organization/4b5a882f-1f43-485c-85c6-f5ad2337d5b1"}]},"request":{"method":"PUT","url":"Coverage/94899006-47b7-48b6-bba1-d45ea48eecb7"}},{"fullUrl":"https://madie.cms.gov/Observation/heart-rate-1557","resource":{"resourceType":"Observation","id":"ed888982-a7c8-472c-804d-2b9733093f0d","meta":{"profile":["http://hl7.org/fhir/us/qicore/StructureDefinition/qicore-observation"]},"status":"final","category":[{"coding":[{"system":"http://terminology.hl7.org/CodeSystem/observation-category","code":"laboratory","display":"laboratory","userSelected":true}]}],"code":{"coding":[{"system":"http://loinc.org","version":"2.69","code":"8867-4","display":"Heart rate","userSelected":true}]},"subject":{"reference":"Patient/387330f1-1023-4576-9994-626c196d2c01"},"effectiveDateTime":"2024-06-28T08:00:00.000+00:00","valueQuantity":{"value":82,"unit":"{beats}/min","system":"http://unitsofmeasure.org","code":"{beats}/min"}},"request":{"method":"PUT","url":"Observation/ed888982-a7c8-472c-804d-2b9733093f0d"}},{"fullUrl":"https://madie.cms.gov/Organization/123456","resource":{"resourceType":"Organization","id":"4b5a882f-1f43-485c-85c6-f5ad2337d5b1","meta":{"profile":["http://hl7.org/fhir/us/qicore/StructureDefinition/qicore-organization"]},"identifier":[{"use":"temp","system":"urn:oid:2.16.840.1.113883.4.4","value":"21-3259825"}],"active":true,"type":[{"coding":[{"system":"http://terminology.hl7.org/CodeSystem/organization-type","code":"pay","display":"Payer"}]}],"name":"Blue Cross Blue Shield of Texas","telecom":[{"system":"phone","value":"(+1) 972-766-6900"}],"address":[{"use":"billing","type":"postal","line":["P.O. Box 660044"],"city":"Dallas","state":"TX","postalCode":"75266-0044","country":"USA"}]},"request":{"method":"PUT","url":"Organization/4b5a882f-1f43-485c-85c6-f5ad2337d5b1"}},{"fullUrl":"https://madie.cms.gov/Practitioner/practitioner-123456","resource":{"resourceType":"Practitioner","id":"39ad312d-1483-4a1e-96c1-f37267aee7b9","meta":{"profile":["http://hl7.org/fhir/us/qicore/StructureDefinition/qicore-practitioner"]},"identifier":[{"system":"http://hl7.org/fhir/sid/us-npi","value":"123456"}],"name":[{"family":"Evil","prefix":["Dr"]}]},"request":{"method":"PUT","url":"Practitioner/39ad312d-1483-4a1e-96c1-f37267aee7b9"}},{"fullUrl":"https://madie.cms.gov/MeasureReport/6707db40-8ebf-4511-a4a8-5fecabfe9a2a","resource":{"resourceType":"MeasureReport","id":"6707db40-8ebf-4511-a4a8-5fecabfe9a2a","meta":{"profile":["http://hl7.org/fhir/us/cqfmeasures/StructureDefinition/test-case-cqfm"]},"contained":[{"resourceType":"Parameters","id":"16f12733-e8db-4073-898c-c81e608833ee-parameters","parameter":[{"name":"subject","valueString":"387330f1-1023-4576-9994-626c196d2c01"}]}],"extension":[{"url":"http://hl7.org/fhir/us/cqfmeasures/StructureDefinition/cqfm-inputParameters","valueReference":{"reference":"#16f12733-e8db-4073-898c-c81e608833ee-parameters"}},{"url":"http://hl7.org/fhir/us/cqfmeasures/StructureDefinition/cqfm-testCaseDescription","valueMarkdown":"Enc ends last day of MP, patient's birthday same day as admission but is age 64. Patient does have Medicare coverage\n "}],"modifierExtension":[{"url":"http://hl7.org/fhir/us/cqfmeasures/StructureDefinition/cqfm-isTestCase","valueBoolean":true}],"status":"complete","type":"individual","measure":"https://madie.cms.gov/Measure/HybridHospitalWideReadmissionFHIR","period":{"start":"2025-07-01","end":"2026-06-30"},"group":[{"population":[{"code":{"coding":[{"system":"http://terminology.hl7.org/CodeSystem/measure-population","code":"initial-population","display":"Initial Population"}]},"count":0}]}]},"request":{"method":"PUT","url":"MeasureReport/6707db40-8ebf-4511-a4a8-5fecabfe9a2a"}}]}