{"resourceType":"Bundle","id":"tests-931bd37a-4aed-48b1-a2ab-b6d73c0b07f0-bundle","type":"transaction","entry":[{"fullUrl":"https://madie.cms.gov/Patient/931bd37a-4aed-48b1-a2ab-b6d73c0b07f0","resource":{"resourceType":"Patient","id":"931bd37a-4aed-48b1-a2ab-b6d73c0b07f0","meta":{"profile":["http://hl7.org/fhir/us/qicore/StructureDefinition/qicore-patient"]},"text":{"status":"generated","div":"<div xmlns=\"http://www.w3.org/1999/xhtml\"><div class=\"hapiHeaderText\">NoResult <b>SODIUMFAIL </b></div><table class=\"hapiPropertyTable\"><tbody><tr><td>Identifier</td><td>eb360e3679224871964d5b3575a59ceb3c2f6260372fb1be3ea61ac84d2937cf</td></tr><tr><td>Date of birth</td><td><span>15 June 1956</span></td></tr></tbody></table></div>"},"extension":[{"url":"http://hl7.org/fhir/us/core/StructureDefinition/us-core-race","extension":[{"url":"ombCategory","valueCoding":{"system":"urn:oid:2.16.840.1.113883.6.238","code":"1002-5","display":"American Indian or Alaska Native","userSelected":true}},{"url":"text","valueString":"American Indian or Alaska Native"}]},{"url":"http://hl7.org/fhir/us/core/StructureDefinition/us-core-ethnicity","extension":[{"url":"ombCategory","valueCoding":{"system":"urn:oid:2.16.840.1.113883.6.238","code":"2186-5","display":"Not Hispanic or Latino","userSelected":true}},{"url":"text","valueString":"Not Hispanic or Latino"}]}],"identifier":[{"type":{"coding":[{"system":"http://terminology.hl7.org/CodeSystem/v2-0203","code":"MR"}]},"system":"https://bonnie-fhir.healthit.gov/","value":"63ec096bccb3770120fea0ad"}],"active":true,"name":[{"use":"usual","family":"PerformedOnAdmission","given":["OxygenSatPass"]}],"gender":"male","birthDate":"1940-07-01"},"request":{"method":"PUT","url":"Patient/931bd37a-4aed-48b1-a2ab-b6d73c0b07f0"}},{"fullUrl":"https://madie.cms.gov/Encounter/5f996a69b977ef0000c0305a","resource":{"resourceType":"Encounter","id":"35f80a0e-331a-4f30-a3aa-0656b949e992","meta":{"profile":["http://hl7.org/fhir/us/qicore/StructureDefinition/qicore-encounter"]},"status":"finished","class":{"system":"http://terminology.hl7.org/CodeSystem/v3-ActCode","code":"IMP","display":"inpatient encounter","userSelected":true},"type":[{"coding":[{"system":"http://snomed.info/sct","code":"183452005"}]}],"subject":{"reference":"Patient/931bd37a-4aed-48b1-a2ab-b6d73c0b07f0"},"period":{"start":"2025-07-01T12:01:00.000+00:00","end":"2025-07-04T08:15:00.000+00:00"}},"request":{"method":"PUT","url":"Encounter/35f80a0e-331a-4f30-a3aa-0656b949e992"}},{"fullUrl":"https://madie.cms.gov/Encounter/5f996a69b977ef0000c0305a1","resource":{"resourceType":"Encounter","id":"0cf564b5-f1a8-44c8-bac4-79a665a4a58a","meta":{"profile":["http://hl7.org/fhir/us/qicore/StructureDefinition/qicore-encounter"]},"status":"finished","class":{"system":"http://terminology.hl7.org/CodeSystem/v3-ActCode","code":"IMP","display":"inpatient encounter","userSelected":true},"type":[{"coding":[{"system":"http://snomed.info/sct","code":"183452005","display":"Emergency hospital admission (procedure)"}]}],"subject":{"reference":"Patient/931bd37a-4aed-48b1-a2ab-b6d73c0b07f0"},"period":{"start":"2025-12-31T12:01:00.000+00:00","end":"2026-01-03T10:00:00.000+00:00"}},"request":{"method":"PUT","url":"Encounter/0cf564b5-f1a8-44c8-bac4-79a665a4a58a"}},{"fullUrl":"https://madie.cms.gov/Encounter/5f996a69b977ef0000c0305a2","resource":{"resourceType":"Encounter","id":"4026e8a3-41e0-4311-ad62-24c009f49e37","meta":{"profile":["http://hl7.org/fhir/us/qicore/StructureDefinition/qicore-encounter"]},"status":"finished","class":{"system":"http://terminology.hl7.org/CodeSystem/v3-ActCode","code":"IMP","display":"inpatient encounter","userSelected":true},"type":[{"coding":[{"system":"http://snomed.info/sct","code":"32485007","display":"Hospital admission (procedure)"}]}],"subject":{"reference":"Patient/931bd37a-4aed-48b1-a2ab-b6d73c0b07f0"},"period":{"start":"2026-01-04T08:00:00.000+00:00","end":"2026-01-08T08:15:00.000+00:00"}},"request":{"method":"PUT","url":"Encounter/4026e8a3-41e0-4311-ad62-24c009f49e37"}},{"fullUrl":"https://madie.cms.gov/Observation/5b55f69ab84846558c53bb54","resource":{"resourceType":"Observation","id":"f7903649-5c31-491d-acdd-ffda9e756a73","meta":{"profile":["http://hl7.org/fhir/us/qicore/StructureDefinition/qicore-observation"]},"status":"final","category":[{"coding":[{"system":"http://terminology.hl7.org/CodeSystem/observation-category","code":"vital-signs","display":"Vital Signs","userSelected":true}]}],"code":{"coding":[{"system":"http://loinc.org","code":"59408-5","display":"Oxygen saturation in Arterial blood by Pulse oximetry"}]},"subject":{"reference":"Patient/931bd37a-4aed-48b1-a2ab-b6d73c0b07f0"},"effectiveDateTime":"2025-07-01T12:01:00.000+00:00","valueQuantity":{"value":98,"unit":"%","system":"http://unitsofmeasure.org","code":"%"}},"request":{"method":"PUT","url":"Observation/f7903649-5c31-491d-acdd-ffda9e756a73"}},{"fullUrl":"https://madie.cms.gov/Coverage/5f99693eb977ef0000c02d5c","resource":{"resourceType":"Coverage","id":"db41da5b-e4ad-43ca-9ec4-e56b589e6756","meta":{"profile":["http://hl7.org/fhir/us/qicore/StructureDefinition/qicore-coverage"]},"status":"active","type":{"coding":[{"system":"https://nahdo.org/sopt","version":"1.0.1","code":"1","display":"Medicare payer","userSelected":true}]},"beneficiary":{"reference":"Patient/931bd37a-4aed-48b1-a2ab-b6d73c0b07f0"},"payor":[{"reference":"Organization/4b5a882f-1f43-485c-85c6-f5ad2337d5b1"}]},"request":{"method":"PUT","url":"Coverage/db41da5b-e4ad-43ca-9ec4-e56b589e6756"}},{"fullUrl":"https://madie.cms.gov/Practitioner/practitioner-123456","resource":{"resourceType":"Practitioner","id":"c90c3ec5-98eb-411b-8b51-764abd31d574","meta":{"profile":["http://hl7.org/fhir/us/qicore/StructureDefinition/qicore-practitioner"]},"identifier":[{"system":"http://hl7.org/fhir/sid/us-npi","value":"123456"}],"name":[{"family":"Evil","prefix":["Dr"]}]},"request":{"method":"PUT","url":"Practitioner/c90c3ec5-98eb-411b-8b51-764abd31d574"}},{"fullUrl":"https://madie.cms.gov/MeasureReport/a23d909b-28b1-4003-b506-5e9d6660ad3e","resource":{"resourceType":"MeasureReport","id":"a23d909b-28b1-4003-b506-5e9d6660ad3e","meta":{"profile":["http://hl7.org/fhir/us/cqfmeasures/StructureDefinition/test-case-cqfm"]},"contained":[{"resourceType":"Parameters","id":"82a36716-0b63-4322-8b66-622078b014fe-parameters","parameter":[{"name":"subject","valueString":"931bd37a-4aed-48b1-a2ab-b6d73c0b07f0"}]}],"extension":[{"url":"http://hl7.org/fhir/us/cqfmeasures/StructureDefinition/cqfm-inputParameters","valueReference":{"reference":"#82a36716-0b63-4322-8b66-622078b014fe-parameters"}},{"url":"http://hl7.org/fhir/us/cqfmeasures/StructureDefinition/cqfm-testCaseDescription","valueMarkdown":"Enc first day of MP (7/1), age 65 today, has Medicare, O2 sats performed on admission and 24 hours after admission, only the first one is included"}],"modifierExtension":[{"url":"http://hl7.org/fhir/us/cqfmeasures/StructureDefinition/cqfm-isTestCase","valueBoolean":true}],"status":"complete","type":"individual","measure":"https://madie.cms.gov/Measure/HybridHospitalWideReadmissionFHIR","period":{"start":"2025-07-01","end":"2026-06-30"},"group":[{"population":[{"code":{"coding":[{"system":"http://terminology.hl7.org/CodeSystem/measure-population","code":"initial-population","display":"Initial Population"}]},"count":3}]}]},"request":{"method":"PUT","url":"MeasureReport/a23d909b-28b1-4003-b506-5e9d6660ad3e"}}]}