{"resourceType":"Bundle","id":"tests-73e88efb-563b-43b8-b201-250ccd1ec40b-bundle","type":"transaction","entry":[{"fullUrl":"https://madie.cms.gov/Patient/73e88efb-563b-43b8-b201-250ccd1ec40b","resource":{"resourceType":"Patient","id":"73e88efb-563b-43b8-b201-250ccd1ec40b","meta":{"profile":["http://hl7.org/fhir/us/qicore/StructureDefinition/qicore-patient"]},"text":{"status":"generated","div":"<div xmlns=\"http://www.w3.org/1999/xhtml\"><div class=\"hapiHeaderText\">OtherPayer <b>IPFAIL </b></div><table class=\"hapiPropertyTable\"><tbody><tr><td>Identifier</td><td>994d6961b050377563af14f791a8facb4527a9b0f5746553e615286000e5f9bd</td></tr><tr><td>Date of birth</td><td><span>21 June 1956</span></td></tr></tbody></table></div>"},"extension":[{"url":"http://hl7.org/fhir/us/core/StructureDefinition/us-core-race","extension":[{"url":"ombCategory","valueCoding":{"system":"urn:oid:2.16.840.1.113883.6.238","code":"1002-5","display":"American Indian or Alaska Native","userSelected":true}},{"url":"text","valueString":"American Indian or Alaska Native"}]},{"url":"http://hl7.org/fhir/us/core/StructureDefinition/us-core-ethnicity","extension":[{"url":"ombCategory","valueCoding":{"system":"urn:oid:2.16.840.1.113883.6.238","code":"2186-5","display":"Not Hispanic or Latino","userSelected":true}},{"url":"text","valueString":"Not Hispanic or Latino"}]}],"identifier":[{"type":{"coding":[{"system":"http://terminology.hl7.org/CodeSystem/v2-0203","code":"MR"}]},"system":"https://bonnie-fhir.healthit.gov/","value":"63ec096dccb3770120fea2db"}],"active":true,"name":[{"use":"usual","family":"IPPass","given":["DifferentPayerValueSetIncludesMedicare"]}],"gender":"male","birthDate":"1956-06-21"},"request":{"method":"PUT","url":"Patient/73e88efb-563b-43b8-b201-250ccd1ec40b"}},{"fullUrl":"https://madie.cms.gov/Encounter/5e3b3191313ce50000458084","resource":{"resourceType":"Encounter","id":"5e3b3191313ce50000458084","meta":{"profile":["http://hl7.org/fhir/us/qicore/StructureDefinition/qicore-encounter"]},"status":"finished","class":{"system":"http://terminology.hl7.org/CodeSystem/v3-ActCode","code":"IMP","display":"inpatient encounter","userSelected":true},"type":[{"coding":[{"system":"http://snomed.info/sct","code":"183452005"}]}],"subject":{"reference":"Patient/73e88efb-563b-43b8-b201-250ccd1ec40b"},"period":{"start":"2025-07-01T08:00:00+00:00","end":"2025-07-03T08:30:00+00:00"},"length":{"value":2,"unit":"days"}},"request":{"method":"PUT","url":"Encounter/5e3b3191313ce50000458084"}},{"fullUrl":"https://madie.cms.gov/Coverage/5f9a0224ed31890000d324d4","resource":{"resourceType":"Coverage","id":"5f9a0224ed31890000d324d4","meta":{"profile":["http://hl7.org/fhir/us/qicore/StructureDefinition/qicore-coverage"]},"status":"active","type":{"coding":[{"system":"https://nahdo.org/sopt","version":"1.0.1","code":"119","display":"Medicare managed care other","userSelected":true}]},"beneficiary":{"reference":"Patient/73e88efb-563b-43b8-b201-250ccd1ec40b"},"period":{"start":"2024-01-01T08:00:00.000+00:00","end":"2026-01-12T08:15:00.000+00:00"},"payor":[{"reference":"Organization/Org-123456"}]},"request":{"method":"PUT","url":"Coverage/5f9a0224ed31890000d324d4"}},{"fullUrl":"https://madie.cms.gov/Organization/123456","resource":{"resourceType":"Organization","id":"Org-123456","meta":{"profile":["http://hl7.org/fhir/us/qicore/StructureDefinition/qicore-organization"]},"identifier":[{"use":"temp","system":"urn:oid:2.16.840.1.113883.4.4","value":"21-3259825"}],"active":true,"type":[{"coding":[{"system":"http://terminology.hl7.org/CodeSystem/organization-type","code":"pay","display":"Payer"}]}],"name":"Blue Cross Blue Shield of Texas","telecom":[{"system":"phone","value":"(+1) 972-766-6900"}],"address":[{"use":"billing","type":"postal","line":["P.O. Box 660044"],"city":"Dallas","state":"TX","postalCode":"75266-0044","country":"USA"}]},"request":{"method":"PUT","url":"Organization/Org-123456"}},{"fullUrl":"https://madie.cms.gov/Practitioner/practitioner-123456","resource":{"resourceType":"Practitioner","id":"practitioner-123456","meta":{"profile":["http://hl7.org/fhir/us/qicore/StructureDefinition/qicore-practitioner"]},"identifier":[{"system":"http://hl7.org/fhir/sid/us-npi","value":"123456"}],"name":[{"family":"Evil","prefix":["Dr"]}]},"request":{"method":"PUT","url":"Practitioner/practitioner-123456"}},{"fullUrl":"https://madie.cms.gov/MeasureReport/886fb6df-b00c-4027-931f-28c4cd061057","resource":{"resourceType":"MeasureReport","id":"886fb6df-b00c-4027-931f-28c4cd061057","meta":{"profile":["http://hl7.org/fhir/us/cqfmeasures/StructureDefinition/test-case-cqfm"]},"contained":[{"resourceType":"Parameters","id":"40ec80ee-2b1e-4bb9-b285-a38c9bc995f5-parameters","parameter":[{"name":"subject","valueString":"73e88efb-563b-43b8-b201-250ccd1ec40b"}]}],"extension":[{"url":"http://hl7.org/fhir/us/cqfmeasures/StructureDefinition/cqfm-inputParameters","valueReference":{"reference":"#40ec80ee-2b1e-4bb9-b285-a38c9bc995f5-parameters"}},{"url":"http://hl7.org/fhir/us/cqfmeasures/StructureDefinition/cqfm-testCaseDescription","valueMarkdown":"Enc first day of MP July 1 - 3rd, Payer from different VS but SOP 119  is include in the Medicare Advantage payer vs so meets insurance expectation; "}],"modifierExtension":[{"url":"http://hl7.org/fhir/us/cqfmeasures/StructureDefinition/cqfm-isTestCase","valueBoolean":true}],"status":"complete","type":"individual","measure":"https://madie.cms.gov/Measure/HybridHospitalWideReadmissionFHIR","period":{"start":"2025-07-01","end":"2026-06-30"},"group":[{"population":[{"code":{"coding":[{"system":"http://terminology.hl7.org/CodeSystem/measure-population","code":"initial-population","display":"Initial Population"}]},"count":1}]}],"evaluatedResource":[{"reference":"Patient/73e88efb-563b-43b8-b201-250ccd1ec40b"},{"reference":"Encounter/5e3b3191313ce50000458084"},{"reference":"Coverage/5f9a0224ed31890000d324d4"},{"reference":"Organization/Org-123456"},{"reference":"Practitioner/practitioner-123456"}]},"request":{"method":"PUT","url":"MeasureReport/886fb6df-b00c-4027-931f-28c4cd061057"}}]}