{"resourceType":"Bundle","id":"tests-dbb82192-d268-4e50-be41-8e371d33bacd-bundle","type":"transaction","entry":[{"fullUrl":"https://madie.cms.gov/Patient/dbb82192-d268-4e50-be41-8e371d33bacd","resource":{"resourceType":"Patient","id":"dbb82192-d268-4e50-be41-8e371d33bacd","meta":{"profile":["http://hl7.org/fhir/us/qicore/StructureDefinition/qicore-patient"]},"text":{"status":"generated","div":"<div xmlns=\"http://www.w3.org/1999/xhtml\"><div class=\"hapiHeaderText\">LTE24before <b>CREATPASS </b></div><table class=\"hapiPropertyTable\"><tbody><tr><td>Identifier</td><td>f7053d5904ff43c96857e3f606716bbc2f99b5ab9c0c40826e6d339080f2947c</td></tr><tr><td>Date of birth</td><td><span>15 June 1956</span></td></tr></tbody></table></div>"},"extension":[{"url":"http://hl7.org/fhir/us/core/StructureDefinition/us-core-race","extension":[{"url":"ombCategory","valueCoding":{"system":"urn:oid:2.16.840.1.113883.6.238","code":"2076-8","display":"Native Hawaiian or Other Pacific Islander","userSelected":true}},{"url":"text","valueString":"Native Hawaiian or Other Pacific Islander"}]},{"url":"http://hl7.org/fhir/us/core/StructureDefinition/us-core-ethnicity","extension":[{"url":"ombCategory","valueCoding":{"system":"urn:oid:2.16.840.1.113883.6.238","code":"2186-5","display":"Not Hispanic or Latino","userSelected":true}},{"url":"text","valueString":"Not Hispanic or Latino"}]}],"identifier":[{"type":{"coding":[{"system":"http://terminology.hl7.org/CodeSystem/v2-0203","code":"MR"}]},"system":"https://bonnie-fhir.healthit.gov/","value":"63ec096cccb3770120fea178"}],"active":true,"name":[{"use":"usual","family":"CreatinineFail","given":["24Hrs1MinAfterStartOfInpatient"]}],"gender":"female","birthDate":"1960-07-01"},"request":{"method":"PUT","url":"Patient/dbb82192-d268-4e50-be41-8e371d33bacd"}},{"fullUrl":"https://madie.cms.gov/Encounter/5e0646a6be3ed30000faa0ec","resource":{"resourceType":"Encounter","id":"5e0646a6be3ed30000faa0ec","meta":{"profile":["http://hl7.org/fhir/us/qicore/StructureDefinition/qicore-encounter"]},"status":"finished","class":{"system":"http://terminology.hl7.org/CodeSystem/v3-ActCode","code":"ACUTE","display":"Acute","userSelected":true},"type":[{"coding":[{"system":"http://snomed.info/sct","code":"183452005"}]}],"subject":{"reference":"Patient/dbb82192-d268-4e50-be41-8e371d33bacd"},"period":{"start":"2025-07-01T08:00:00.000+00:00","end":"2025-07-05T08:15:00.000+00:00"},"length":{"value":4,"unit":"days"}},"request":{"method":"PUT","url":"Encounter/5e0646a6be3ed30000faa0ec"}},{"fullUrl":"https://madie.cms.gov/Coverage/5f9968c9b977ef0000c02c02","resource":{"resourceType":"Coverage","id":"5f9968c9b977ef0000c02c02","meta":{"profile":["http://hl7.org/fhir/us/qicore/StructureDefinition/qicore-coverage"]},"status":"active","type":{"coding":[{"system":"https://nahdo.org/sopt","version":"1.0.1","code":"1","display":"Medicare payer","userSelected":true}]},"beneficiary":{"reference":"Patient/dbb82192-d268-4e50-be41-8e371d33bacd"},"payor":[{"reference":"Organization/Org-123456"}]},"request":{"method":"PUT","url":"Coverage/5f9968c9b977ef0000c02c02"}},{"fullUrl":"https://madie.cms.gov/Observation/5b55f71ab84846558c53bc09","resource":{"resourceType":"Observation","id":"5b55f71ab84846558c53bc09","meta":{"profile":["http://hl7.org/fhir/us/core/StructureDefinition/us-core-observation-lab"]},"status":"final","category":[{"coding":[{"system":"http://terminology.hl7.org/CodeSystem/observation-category","code":"laboratory","display":"laboratory","userSelected":true}]}],"code":{"coding":[{"system":"http://loinc.org","version":"2.69","code":"14682-9","display":"Creatinine [Moles/volume] in Serum or Plasma","userSelected":true}]},"subject":{"reference":"Patient/dbb82192-d268-4e50-be41-8e371d33bacd"},"issued":"2025-07-02T08:01:00.000+00:00","valueQuantity":{"value":1,"unit":"mg/dL","system":"http://unitsofmeasure.org","code":"mg/dL"}},"request":{"method":"PUT","url":"Observation/5b55f71ab84846558c53bc09"}},{"fullUrl":"https://madie.cms.gov/Observation/5b55f71ab84846558c53bc0b","resource":{"resourceType":"Observation","id":"5b55f71ab84846558c53bc0b","meta":{"profile":["http://hl7.org/fhir/us/core/StructureDefinition/us-core-observation-lab"]},"status":"final","category":[{"coding":[{"system":"http://terminology.hl7.org/CodeSystem/observation-category","code":"laboratory","display":"laboratory","userSelected":true}]}],"code":{"coding":[{"system":"http://loinc.org","version":"2.69","code":"14682-9","display":"Creatinine [Moles/volume] in Serum or Plasma","userSelected":true}]},"subject":{"reference":"Patient/dbb82192-d268-4e50-be41-8e371d33bacd"},"issued":"2025-07-03T08:00:00.000+00:00","valueQuantity":{"value":2,"unit":"mg/dL","system":"http://unitsofmeasure.org","code":"mg/dL"}},"request":{"method":"PUT","url":"Observation/5b55f71ab84846558c53bc0b"}},{"fullUrl":"https://madie.cms.gov/Observation/creatinine-lab-test-1555","resource":{"resourceType":"Observation","id":"creatinine-lab-test-1555","meta":{"profile":["http://hl7.org/fhir/us/core/StructureDefinition/us-core-observation-lab"]},"status":"final","category":[{"coding":[{"system":"http://terminology.hl7.org/CodeSystem/observation-category","code":"laboratory","display":"laboratory","userSelected":true}]}],"code":{"coding":[{"system":"http://loinc.org","version":"2.69","code":"14682-9","display":"Creatinine [Moles/volume] in Serum or Plasma","userSelected":true}]},"subject":{"reference":"Patient/dbb82192-d268-4e50-be41-8e371d33bacd"},"issued":"2025-07-04T20:00:00.000+00:00","valueQuantity":{"value":3,"unit":"mg/dL","system":"http://unitsofmeasure.org","code":"mg/dL"}},"request":{"method":"PUT","url":"Observation/creatinine-lab-test-1555"}},{"fullUrl":"https://madie.cms.gov/Observation/creatinine-lab-test-1556","resource":{"resourceType":"Observation","id":"creatinine-lab-test-1556","meta":{"profile":["http://hl7.org/fhir/us/core/StructureDefinition/us-core-observation-lab"]},"status":"final","category":[{"coding":[{"system":"http://terminology.hl7.org/CodeSystem/observation-category","code":"laboratory","display":"laboratory","userSelected":true}]}],"code":{"coding":[{"system":"http://loinc.org","version":"2.69","code":"14682-9","display":"Creatinine [Moles/volume] in Serum or Plasma","userSelected":true}]},"subject":{"reference":"Patient/dbb82192-d268-4e50-be41-8e371d33bacd"},"issued":"2025-07-05T08:00:00.000+00:00","valueQuantity":{"value":4,"unit":"mg/dL","system":"http://unitsofmeasure.org","code":"mg/dL"}},"request":{"method":"PUT","url":"Observation/creatinine-lab-test-1556"}},{"fullUrl":"https://madie.cms.gov/Organization/123456","resource":{"resourceType":"Organization","id":"Org-123456","meta":{"profile":["http://hl7.org/fhir/us/qicore/StructureDefinition/qicore-organization"]},"identifier":[{"use":"temp","system":"urn:oid:2.16.840.1.113883.4.4","value":"21-3259825"}],"active":true,"type":[{"coding":[{"system":"http://terminology.hl7.org/CodeSystem/organization-type","code":"pay","display":"Payer"}]}],"name":"Blue Cross Blue Shield of Texas","telecom":[{"system":"phone","value":"(+1) 972-766-6900"}],"address":[{"use":"billing","type":"postal","line":["P.O. Box 660044"],"city":"Dallas","state":"TX","postalCode":"75266-0044","country":"USA"}]},"request":{"method":"PUT","url":"Organization/Org-123456"}},{"fullUrl":"https://madie.cms.gov/Practitioner/practitioner-123456","resource":{"resourceType":"Practitioner","id":"practitioner-123456","meta":{"profile":["http://hl7.org/fhir/us/qicore/StructureDefinition/qicore-practitioner"]},"identifier":[{"system":"http://hl7.org/fhir/sid/us-npi","value":"123456"}],"name":[{"family":"Evil","prefix":["Dr"]}]},"request":{"method":"PUT","url":"Practitioner/practitioner-123456"}},{"fullUrl":"https://madie.cms.gov/MeasureReport/56ecce49-8b65-4738-b38b-a5eb1025ec15","resource":{"resourceType":"MeasureReport","id":"56ecce49-8b65-4738-b38b-a5eb1025ec15","meta":{"profile":["http://hl7.org/fhir/us/cqfmeasures/StructureDefinition/test-case-cqfm"]},"contained":[{"resourceType":"Parameters","id":"25f8b3e3-3722-4c0f-85f4-a38390879c51-parameters","parameter":[{"name":"subject","valueString":"dbb82192-d268-4e50-be41-8e371d33bacd"}]}],"extension":[{"url":"http://hl7.org/fhir/us/cqfmeasures/StructureDefinition/cqfm-inputParameters","valueReference":{"reference":"#25f8b3e3-3722-4c0f-85f4-a38390879c51-parameters"}},{"url":"http://hl7.org/fhir/us/cqfmeasures/StructureDefinition/cqfm-testCaseDescription","valueMarkdown":"Enc. started first day of MP (7/1), has Medicare, turned 65 today, Creatinine tests performed 24 hrs 1 min after start of inpatient enc; other creatinine  labs followed for days 2-4 but all were well after the 24 hr timeline. "}],"modifierExtension":[{"url":"http://hl7.org/fhir/us/cqfmeasures/StructureDefinition/cqfm-isTestCase","valueBoolean":true}],"status":"complete","type":"individual","measure":"https://madie.cms.gov/Measure/HybridHospitalWideReadmissionFHIR","period":{"start":"2025-07-01","end":"2026-06-30"},"group":[{"population":[{"code":{"coding":[{"system":"http://terminology.hl7.org/CodeSystem/measure-population","code":"initial-population","display":"Initial Population"}]},"count":1}]}],"evaluatedResource":[{"reference":"Patient/dbb82192-d268-4e50-be41-8e371d33bacd"},{"reference":"Encounter/5e0646a6be3ed30000faa0ec"},{"reference":"Coverage/5f9968c9b977ef0000c02c02"},{"reference":"Observation/5b55f71ab84846558c53bc09"},{"reference":"Observation/5b55f71ab84846558c53bc0b"},{"reference":"Observation/creatinine-lab-test-1555"},{"reference":"Observation/creatinine-lab-test-1556"},{"reference":"Organization/Org-123456"},{"reference":"Practitioner/practitioner-123456"}]},"request":{"method":"PUT","url":"MeasureReport/56ecce49-8b65-4738-b38b-a5eb1025ec15"}}]}