{"resourceType":"Bundle","id":"tests-51a09eb7-d8df-4cda-9563-4ba302a62686-bundle","type":"transaction","entry":[{"fullUrl":"https://madie.cms.gov/Patient/51a09eb7-d8df-4cda-9563-4ba302a62686","resource":{"resourceType":"Patient","id":"51a09eb7-d8df-4cda-9563-4ba302a62686","meta":{"profile":["http://hl7.org/fhir/us/qicore/StructureDefinition/qicore-patient"]},"text":{"status":"generated","div":"<div xmlns=\"http://www.w3.org/1999/xhtml\"><div class=\"hapiHeaderText\">LTE24before <b>WEIGHTANDOXY </b></div><table class=\"hapiPropertyTable\"><tbody><tr><td>Identifier</td><td>d69abbc179641b9cd673a4a9152886e8e63bc2e0e7b27e1a51505ef2a774679e</td></tr><tr><td>Date of birth</td><td><span>15 June 1947</span></td></tr></tbody></table></div>"},"extension":[{"url":"http://hl7.org/fhir/us/core/StructureDefinition/us-core-race","extension":[{"url":"ombCategory","valueCoding":{"system":"urn:oid:2.16.840.1.113883.6.238","code":"1002-5","display":"American Indian or Alaska Native","userSelected":true}},{"url":"text","valueString":"American Indian or Alaska Native"}]},{"url":"http://hl7.org/fhir/us/core/StructureDefinition/us-core-ethnicity","extension":[{"url":"ombCategory","valueCoding":{"system":"urn:oid:2.16.840.1.113883.6.238","code":"2186-5","display":"Not Hispanic or Latino","userSelected":true}},{"url":"text","valueString":"Not Hispanic or Latino"}]}],"identifier":[{"type":{"coding":[{"system":"http://terminology.hl7.org/CodeSystem/v2-0203","code":"MR"}]},"system":"https://bonnie-fhir.healthit.gov/","value":"63ec09a7ccb3770120feac15"}],"active":true,"name":[{"use":"usual","family":"WeightandOxygenPass","given":["Weight1MinAfterEncStartOxy2HrsBeforeEncStart"]}],"gender":"male","birthDate":"1947-06-15"},"request":{"method":"PUT","url":"Patient/51a09eb7-d8df-4cda-9563-4ba302a62686"}},{"fullUrl":"https://madie.cms.gov/Encounter/5dc2cd7fd47b2c00005dfd6d","resource":{"resourceType":"Encounter","id":"adb85cc3-ace9-4fe5-9c36-59d03e8d2042","meta":{"profile":["http://hl7.org/fhir/us/qicore/StructureDefinition/qicore-encounter"]},"status":"finished","class":{"system":"http://terminology.hl7.org/CodeSystem/v3-ActCode","code":"IMP","display":"inpatient encounter","userSelected":true},"type":[{"coding":[{"system":"http://snomed.info/sct","code":"183452005"}]}],"subject":{"reference":"Patient/51a09eb7-d8df-4cda-9563-4ba302a62686"},"period":{"start":"2025-08-21T08:00:00.000+00:00","end":"2025-08-22T08:15:00.000+00:00"}},"request":{"method":"PUT","url":"Encounter/adb85cc3-ace9-4fe5-9c36-59d03e8d2042"}},{"fullUrl":"https://madie.cms.gov/Coverage/5f98f5eba916680000fb7080","resource":{"resourceType":"Coverage","id":"5153c01f-96b9-4b41-8bf7-f636c7eb9b55","meta":{"profile":["http://hl7.org/fhir/us/qicore/StructureDefinition/qicore-coverage"]},"status":"active","type":{"coding":[{"system":"https://nahdo.org/sopt","version":"1.0.1","code":"1","display":"Medicare payer","userSelected":true}]},"beneficiary":{"reference":"Patient/51a09eb7-d8df-4cda-9563-4ba302a62686"},"payor":[{"reference":"Organization/4b5a882f-1f43-485c-85c6-f5ad2337d5b1"}]},"request":{"method":"PUT","url":"Coverage/5153c01f-96b9-4b41-8bf7-f636c7eb9b55"}},{"fullUrl":"https://madie.cms.gov/Observation/5dc2dfd4831f330000d744f6","resource":{"resourceType":"Observation","id":"62238178-0907-4eed-a9de-3aa26ba636bf","meta":{"profile":["http://hl7.org/fhir/StructureDefinition/bodyweight"]},"status":"amended","category":[{"coding":[{"system":"http://terminology.hl7.org/CodeSystem/observation-category","code":"vital-signs","display":"Vital Signs","userSelected":true}]}],"code":{"coding":[{"system":"http://loinc.org","code":"29463-7","display":"Body weight"}]},"subject":{"reference":"Patient/51a09eb7-d8df-4cda-9563-4ba302a62686"},"effectiveDateTime":"2025-08-21T08:01:00.000+00:00","valueQuantity":{"value":150.0,"unit":"[lb_av]","system":"http://unitsofmeasure.org","code":"[lb_av]"}},"request":{"method":"PUT","url":"Observation/62238178-0907-4eed-a9de-3aa26ba636bf"}},{"fullUrl":"https://madie.cms.gov/Observation/5b55f69ab84846558c53bb54","resource":{"resourceType":"Observation","id":"b09801f8-ab18-4ba3-ab03-b9358f507d0c","meta":{"profile":["http://hl7.org/fhir/us/qicore/StructureDefinition/qicore-observation"]},"status":"final","category":[{"coding":[{"system":"http://terminology.hl7.org/CodeSystem/observation-category","code":"vital-signs","display":"Vital Signs","userSelected":true}]}],"code":{"coding":[{"system":"http://loinc.org","code":"59408-5","display":"Oxygen saturation in Arterial blood by Pulse oximetry"}]},"subject":{"reference":"Patient/51a09eb7-d8df-4cda-9563-4ba302a62686"},"effectiveDateTime":"2025-08-21T06:00:00.000+00:00","valueQuantity":{"value":98,"unit":"%","system":"http://unitsofmeasure.org","code":"%"}},"request":{"method":"PUT","url":"Observation/b09801f8-ab18-4ba3-ab03-b9358f507d0c"}},{"fullUrl":"https://madie.cms.gov/Organization/123456","resource":{"resourceType":"Organization","id":"4b5a882f-1f43-485c-85c6-f5ad2337d5b1","meta":{"profile":["http://hl7.org/fhir/us/qicore/StructureDefinition/qicore-organization"]},"identifier":[{"use":"temp","system":"urn:oid:2.16.840.1.113883.4.4","value":"21-3259825"}],"active":true,"type":[{"coding":[{"system":"http://terminology.hl7.org/CodeSystem/organization-type","code":"pay","display":"Payer"}]}],"name":"Blue Cross Blue Shield of Texas","telecom":[{"system":"phone","value":"(+1) 972-766-6900"}],"address":[{"use":"billing","type":"postal","line":["P.O. Box 660044"],"city":"Dallas","state":"TX","postalCode":"75266-0044","country":"USA"}]},"request":{"method":"PUT","url":"Organization/4b5a882f-1f43-485c-85c6-f5ad2337d5b1"}},{"fullUrl":"https://madie.cms.gov/Practitioner/practitioner-123456","resource":{"resourceType":"Practitioner","id":"6dab0328-950d-47fb-814f-94c171490124","meta":{"profile":["http://hl7.org/fhir/us/qicore/StructureDefinition/qicore-practitioner"]},"identifier":[{"system":"http://hl7.org/fhir/sid/us-npi","value":"123456"}],"name":[{"family":"Evil","prefix":["Dr"]}]},"request":{"method":"PUT","url":"Practitioner/6dab0328-950d-47fb-814f-94c171490124"}},{"fullUrl":"https://madie.cms.gov/MeasureReport/3f07f568-89f0-409c-bfb8-a5c8c0621082","resource":{"resourceType":"MeasureReport","id":"3f07f568-89f0-409c-bfb8-a5c8c0621082","meta":{"profile":["http://hl7.org/fhir/us/cqfmeasures/StructureDefinition/test-case-cqfm"]},"contained":[{"resourceType":"Parameters","id":"95180c19-65ab-43d5-9adf-d50a2c4461bd-parameters","parameter":[{"name":"subject","valueString":"51a09eb7-d8df-4cda-9563-4ba302a62686"}]}],"extension":[{"url":"http://hl7.org/fhir/us/cqfmeasures/StructureDefinition/cqfm-inputParameters","valueReference":{"reference":"#95180c19-65ab-43d5-9adf-d50a2c4461bd-parameters"}},{"url":"http://hl7.org/fhir/us/cqfmeasures/StructureDefinition/cqfm-testCaseDescription","valueMarkdown":"Patient has weight physical exam and oxygen saturation.  Weight 1 minute after admission, oxygen 2 hours before admission.\n"}],"modifierExtension":[{"url":"http://hl7.org/fhir/us/cqfmeasures/StructureDefinition/cqfm-isTestCase","valueBoolean":true}],"status":"complete","type":"individual","measure":"https://madie.cms.gov/Measure/HybridHospitalWideReadmissionFHIR","period":{"start":"2025-07-01","end":"2026-06-30"},"group":[{"population":[{"code":{"coding":[{"system":"http://terminology.hl7.org/CodeSystem/measure-population","code":"initial-population","display":"Initial Population"}]},"count":1}]}]},"request":{"method":"PUT","url":"MeasureReport/3f07f568-89f0-409c-bfb8-a5c8c0621082"}}]}