{"resourceType":"Bundle","id":"tests-73da474b-7013-4d51-8ef8-25c42c3fc686-bundle","type":"transaction","entry":[{"fullUrl":"https://madie.cms.gov/Patient/73da474b-7013-4d51-8ef8-25c42c3fc686","resource":{"resourceType":"Patient","id":"73da474b-7013-4d51-8ef8-25c42c3fc686","meta":{"profile":["http://hl7.org/fhir/us/qicore/StructureDefinition/qicore-patient"]},"text":{"status":"generated","div":"<div xmlns=\"http://www.w3.org/1999/xhtml\"><div class=\"hapiHeaderText\">AssessG0Pnull <b>DENFAIL </b></div><table class=\"hapiPropertyTable\"><tbody><tr><td>Identifier</td><td>b8dbe157da4a58e4e68c2785ca3a1f558369f025fbb700c089d37aa7791ee57b</td></tr><tr><td>Date of birth</td><td><span>14 February 1985</span></td></tr></tbody></table></div>"},"extension":[{"url":"http://hl7.org/fhir/us/core/StructureDefinition/us-core-race","extension":[{"url":"ombCategory","valueCoding":{"system":"urn:oid:2.16.840.1.113883.6.238","code":"1002-5","display":"American Indian or Alaska Native","userSelected":true}},{"url":"text","valueString":"American Indian or Alaska Native"}]},{"url":"http://hl7.org/fhir/us/core/StructureDefinition/us-core-ethnicity","extension":[{"url":"ombCategory","valueCoding":{"system":"urn:oid:2.16.840.1.113883.6.238","code":"2135-2","display":"Hispanic or Latino","userSelected":true}},{"url":"text","valueString":"Hispanic or Latino"}]}],"identifier":[{"type":{"coding":[{"system":"http://terminology.hl7.org/CodeSystem/v2-0203","code":"MR"}]},"system":"https://bonnie-fhir.healthit.gov/","value":"63487c2e0968f80122540176"}],"active":true,"name":[{"use":"usual","family":"DENFail","given":["2EncW_in42weeks"]}],"gender":"female","birthDate":"1997-02-14"},"request":{"method":"PUT","url":"Patient/73da474b-7013-4d51-8ef8-25c42c3fc686"}},{"fullUrl":"https://madie.cms.gov/Observation/5d014eb2b8484608723805a3","resource":{"resourceType":"Observation","id":"e4c9e4a9-cc4f-4fe7-baf9-f4ac503c81c0","meta":{"profile":["http://hl7.org/fhir/us/qicore/StructureDefinition/qicore-observation"]},"status":"final","category":[{"coding":[{"system":"http://terminology.hl7.org/CodeSystem/observation-category","code":"exam","display":"exam","userSelected":true}]}],"code":{"coding":[{"system":"http://loinc.org","code":"11996-6"}]},"subject":{"reference":"Patient/73da474b-7013-4d51-8ef8-25c42c3fc686"},"effectiveDateTime":"2025-01-31T08:00:00.000+00:00","valueInteger":1},"request":{"method":"PUT","url":"Observation/e4c9e4a9-cc4f-4fe7-baf9-f4ac503c81c0"}},{"fullUrl":"https://madie.cms.gov/Observation/5d014eb2b8484608723805a4","resource":{"resourceType":"Observation","id":"f523c1ce-12d1-4aab-ab54-d039155a4204","meta":{"profile":["http://hl7.org/fhir/us/qicore/StructureDefinition/qicore-observation"]},"status":"final","category":[{"coding":[{"system":"http://terminology.hl7.org/CodeSystem/observation-category","code":"exam","display":"exam","userSelected":true}]}],"code":{"coding":[{"system":"http://loinc.org","code":"11996-6"}]},"subject":{"reference":"Patient/73da474b-7013-4d51-8ef8-25c42c3fc686"},"effectiveDateTime":"2025-11-09T08:00:00.000+00:00","valueInteger":1},"request":{"method":"PUT","url":"Observation/f523c1ce-12d1-4aab-ab54-d039155a4204"}},{"fullUrl":"https://madie.cms.gov/Observation/5d014eb2b8484608723805a6","resource":{"resourceType":"Observation","id":"807ca4c9-02dd-4485-87a3-02a3848a0227","meta":{"profile":["http://hl7.org/fhir/us/qicore/StructureDefinition/qicore-observation"]},"status":"final","category":[{"coding":[{"system":"http://terminology.hl7.org/CodeSystem/observation-category","code":"exam","display":"exam","userSelected":true}]}],"code":{"coding":[{"system":"http://loinc.org","code":"11884-4"}]},"subject":{"reference":"Patient/73da474b-7013-4d51-8ef8-25c42c3fc686"},"effectiveDateTime":"2025-02-01T09:15:00.000+00:00","valueQuantity":{"value":38.0,"system":"http://unitsofmeasure.org","code":"weeks"}},"request":{"method":"PUT","url":"Observation/807ca4c9-02dd-4485-87a3-02a3848a0227"}},{"fullUrl":"https://madie.cms.gov/Observation/5d014eb2b8484608723806a6","resource":{"resourceType":"Observation","id":"0703a65f-8fc8-4ee1-af9f-b49ad3d2d302","meta":{"profile":["http://hl7.org/fhir/us/qicore/StructureDefinition/qicore-observation"]},"status":"final","category":[{"coding":[{"system":"http://terminology.hl7.org/CodeSystem/observation-category","code":"exam","display":"exam","userSelected":true}]}],"code":{"coding":[{"system":"http://loinc.org","code":"11884-4"}]},"subject":{"reference":"Patient/73da474b-7013-4d51-8ef8-25c42c3fc686"},"effectiveDateTime":"2025-11-10T08:00:00.000+00:00","valueQuantity":{"value":38.0,"system":"http://unitsofmeasure.org","code":"weeks"}},"request":{"method":"PUT","url":"Observation/0703a65f-8fc8-4ee1-af9f-b49ad3d2d302"}},{"fullUrl":"https://madie.cms.gov/Observation/5e69466d7ffec7000031ff7d","resource":{"resourceType":"Observation","id":"06e91a75-bf27-4051-a59c-30432ae091b8","meta":{"profile":["http://hl7.org/fhir/us/qicore/StructureDefinition/qicore-observation"]},"status":"final","category":[{"coding":[{"system":"http://terminology.hl7.org/CodeSystem/observation-category","code":"exam","display":"exam","userSelected":true}]}],"code":{"coding":[{"system":"http://loinc.org","code":"93857-1"}]},"subject":{"reference":"Patient/73da474b-7013-4d51-8ef8-25c42c3fc686"},"effectiveDateTime":"2025-02-01T19:00:00.000+00:00","valueDateTime":"2025-02-01T19:00:00+00:00"},"request":{"method":"PUT","url":"Observation/06e91a75-bf27-4051-a59c-30432ae091b8"}},{"fullUrl":"https://madie.cms.gov/Observation/5e69466d7ffec7000035ff7d","resource":{"resourceType":"Observation","id":"15ada262-8fee-48d5-ba31-9e32d8789ce9","meta":{"profile":["http://hl7.org/fhir/us/qicore/StructureDefinition/qicore-observation"]},"status":"final","category":[{"coding":[{"system":"http://terminology.hl7.org/CodeSystem/observation-category","code":"exam","display":"exam","userSelected":true}]}],"code":{"coding":[{"system":"http://loinc.org","code":"93857-1"}]},"subject":{"reference":"Patient/73da474b-7013-4d51-8ef8-25c42c3fc686"},"effectiveDateTime":"2025-11-10T08:00:00.000+00:00","valueDateTime":"2025-11-10T08:00:00+00:00"},"request":{"method":"PUT","url":"Observation/15ada262-8fee-48d5-ba31-9e32d8789ce9"}},{"fullUrl":"https://madie.cms.gov/Encounter/5d014eb2b8484608723805a1","resource":{"resourceType":"Encounter","id":"0e682af0-cd6e-405f-9f6e-f0c7504c01b7","meta":{"profile":["http://hl7.org/fhir/us/qicore/StructureDefinition/qicore-encounter"]},"status":"finished","class":{"system":"http://terminology.hl7.org/CodeSystem/v3-ActCode","code":"IMP","display":"inpatient encounter"},"type":[{"coding":[{"system":"http://snomed.info/sct","code":"8715000"}]}],"subject":{"reference":"Patient/73da474b-7013-4d51-8ef8-25c42c3fc686"},"period":{"start":"2025-02-01T08:00:00.000Z","end":"2025-02-05T08:15:00.000Z"},"length":{"value":4.0,"unit":"days"},"diagnosis":[{"condition":{"reference":"Condition/delivery-of-singleton-f83c"},"use":{"coding":[{"system":"http://snomed.info/sct","code":"169826009","display":"Delivery of Singleton"}]}}]},"request":{"method":"PUT","url":"Encounter/0e682af0-cd6e-405f-9f6e-f0c7504c01b7"}},{"fullUrl":"https://madie.cms.gov/Encounter/5d014eb2b8484608723804a2","resource":{"resourceType":"Encounter","id":"20b623fd-0a5b-47a4-98f2-bfccbc9a74ad","meta":{"profile":["http://hl7.org/fhir/us/qicore/StructureDefinition/qicore-encounter"]},"status":"finished","class":{"system":"http://terminology.hl7.org/CodeSystem/v3-ActCode","code":"IMP","display":"inpatient encounter"},"type":[{"coding":[{"system":"http://snomed.info/sct","code":"8715000"}]}],"subject":{"reference":"Patient/73da474b-7013-4d51-8ef8-25c42c3fc686"},"period":{"start":"2025-11-10T08:00:00.000Z","end":"2025-11-15T08:15:00.000Z"},"length":{"value":4.0,"unit":"days"},"diagnosis":[{"condition":{"reference":"Condition/delivery-of-singleton-f83d"},"use":{"coding":[{"system":"http://snomed.info/sct","code":"169826009","display":"Delivery of Singleton"}]}}]},"request":{"method":"PUT","url":"Encounter/20b623fd-0a5b-47a4-98f2-bfccbc9a74ad"}},{"fullUrl":"https://madie.cms.gov/Procedure/5d014eb2b8484608723805a2","resource":{"resourceType":"Procedure","id":"2a540c21-759c-43e5-bbd2-6d2f452e7093","meta":{"profile":["http://hl7.org/fhir/us/qicore/StructureDefinition/qicore-procedure"]},"extension":[{"url":"http://hl7.org/fhir/us/qicore/StructureDefinition/qicore-recorded","valueDateTime":"2013-04-05T09:35:00-04:00"}],"status":"completed","code":{"coding":[{"system":"http://www.cms.gov/Medicare/Coding/ICD10","code":"10D00Z0"},{"system":"http://snomed.info/sct","code":"4504004"}]},"subject":{"reference":"Patient/73da474b-7013-4d51-8ef8-25c42c3fc686"},"performedPeriod":{"start":"2025-02-01T08:00:00.000Z","end":"2025-02-01T08:00:00.000Z"}},"request":{"method":"PUT","url":"Procedure/2a540c21-759c-43e5-bbd2-6d2f452e7093"}},{"fullUrl":"https://madie.cms.gov/Procedure/5d014eb2b8484608723905a2","resource":{"resourceType":"Procedure","id":"e0dc8a1b-654b-46e8-9f7e-69f0691eee26","meta":{"profile":["http://hl7.org/fhir/us/qicore/StructureDefinition/qicore-procedure"]},"extension":[{"url":"http://hl7.org/fhir/us/qicore/StructureDefinition/qicore-recorded","valueDateTime":"2013-04-05T09:35:00-04:00"}],"status":"completed","code":{"coding":[{"system":"http://www.cms.gov/Medicare/Coding/ICD10","code":"10D00Z0"},{"system":"http://snomed.info/sct","code":"4504004"}]},"subject":{"reference":"Patient/73da474b-7013-4d51-8ef8-25c42c3fc686"},"performedPeriod":{"start":"2025-11-10T08:00:00.000Z","end":"2025-11-15T08:15:00.000Z"}},"request":{"method":"PUT","url":"Procedure/e0dc8a1b-654b-46e8-9f7e-69f0691eee26"}},{"fullUrl":"https://madie.cms.gov/Condition/delivery-of-singleton-f83c","resource":{"resourceType":"Condition","id":"ad645605-3359-44d3-95ed-7a6a4a56920f","meta":{"profile":["http://hl7.org/fhir/us/qicore/StructureDefinition/qicore-condition"]},"category":[{"coding":[{"system":"http://terminology.hl7.org/CodeSystem/condition-category","code":"encounter-diagnosis","display":"Encounter Diagnosis"}]}],"code":{"coding":[{"system":"http://snomed.info/sct","version":"2022-09","code":"169826009","display":"Single live birth (finding)","userSelected":true}]},"subject":{"reference":"Patient/73da474b-7013-4d51-8ef8-25c42c3fc686"},"recordedDate":"2025-10-21T08:00:00.000+00:00"},"request":{"method":"PUT","url":"Condition/ad645605-3359-44d3-95ed-7a6a4a56920f"}},{"fullUrl":"https://madie.cms.gov/Condition/delivery-of-singleton-f83d","resource":{"resourceType":"Condition","id":"71c0b5d6-b8ca-42f6-9a7d-2969df800e72","meta":{"profile":["http://hl7.org/fhir/us/qicore/StructureDefinition/qicore-condition"]},"category":[{"coding":[{"system":"http://terminology.hl7.org/CodeSystem/condition-category","code":"encounter-diagnosis","display":"Encounter Diagnosis"}]}],"code":{"coding":[{"system":"http://snomed.info/sct","version":"2022-09","code":"169826009","display":"Single live birth (finding)","userSelected":true}]},"subject":{"reference":"Patient/73da474b-7013-4d51-8ef8-25c42c3fc686"},"recordedDate":"2025-10-21T08:00:00.000+00:00"},"request":{"method":"PUT","url":"Condition/71c0b5d6-b8ca-42f6-9a7d-2969df800e72"}},{"fullUrl":"https://madie.cms.gov/Coverage/1","resource":{"resourceType":"Coverage","id":"5f9636c9-afa1-4b07-ac86-884c36587d4b","meta":{"profile":["http://hl7.org/fhir/us/qicore/StructureDefinition/qicore-coverage"]},"status":"active","beneficiary":{"reference":"Patient/73da474b-7013-4d51-8ef8-25c42c3fc686"},"payor":[{"reference":"Organization/42846cc3-1db0-4bf7-b9ff-8b81fa6e835d"}]},"request":{"method":"PUT","url":"Coverage/5f9636c9-afa1-4b07-ac86-884c36587d4b"}},{"fullUrl":"https://madie.cms.gov/Organization/123456","resource":{"resourceType":"Organization","id":"42846cc3-1db0-4bf7-b9ff-8b81fa6e835d","meta":{"profile":["http://hl7.org/fhir/us/qicore/StructureDefinition/qicore-organization"]},"identifier":[{"use":"temp","system":"urn:oid:2.16.840.1.113883.4.4","value":"21-3259825"}],"active":true,"type":[{"coding":[{"system":"http://terminology.hl7.org/CodeSystem/organization-type","code":"pay","display":"Payer"}]}],"name":"Blue Cross Blue Shield of Texas","telecom":[{"system":"phone","value":"(+1) 972-766-6900"}],"address":[{"use":"billing","type":"postal","line":["P.O. Box 660044"],"city":"Dallas","state":"TX","postalCode":"75266-0044","country":"USA"}]},"request":{"method":"PUT","url":"Organization/42846cc3-1db0-4bf7-b9ff-8b81fa6e835d"}},{"fullUrl":"https://madie.cms.gov/Condition/Condition-1","resource":{"resourceType":"Condition","id":"d0942a10-003b-4ec8-9d17-50c26b974573","meta":{"profile":["http://hl7.org/fhir/us/qicore/StructureDefinition/qicore-condition"]},"category":[{"coding":[{"system":"http://terminology.hl7.org/CodeSystem/condition-category","code":"encounter-diagnosis","display":"Encounter Diagnosis"}]}],"code":{"coding":[{"system":"http://snomed.info/sct","code":"169826009","display":"Single live birth (finding)"}]},"subject":{"reference":"Patient/73da474b-7013-4d51-8ef8-25c42c3fc686"}},"request":{"method":"PUT","url":"Condition/d0942a10-003b-4ec8-9d17-50c26b974573"}},{"fullUrl":"https://madie.cms.gov/Condition/Condition-2","resource":{"resourceType":"Condition","id":"1daba81e-090a-457a-aa92-0f42279b75f9","meta":{"profile":["http://hl7.org/fhir/us/qicore/StructureDefinition/qicore-condition"]},"category":[{"coding":[{"system":"http://terminology.hl7.org/CodeSystem/condition-category","code":"encounter-diagnosis","display":"Encounter Diagnosis"}]}],"code":{"coding":[{"system":"http://snomed.info/sct","code":"169826009","display":"Single live birth (finding)"}]},"subject":{"reference":"Patient/73da474b-7013-4d51-8ef8-25c42c3fc686"}},"request":{"method":"PUT","url":"Condition/1daba81e-090a-457a-aa92-0f42279b75f9"}},{"fullUrl":"https://madie.cms.gov/Practitioner/practitioner-123456","resource":{"resourceType":"Practitioner","id":"95bcf3ea-64a5-427c-81bd-12c28915715b","identifier":[{"system":"http://hl7.org/fhir/sid/us-npi","value":"123456"}],"name":[{"family":"Evil","prefix":["Dr"]}]},"request":{"method":"PUT","url":"Practitioner/95bcf3ea-64a5-427c-81bd-12c28915715b"}},{"fullUrl":"https://madie.cms.gov/MeasureReport/59d8ab43-f893-4a79-92e0-daa012123d3d","resource":{"resourceType":"MeasureReport","id":"59d8ab43-f893-4a79-92e0-daa012123d3d","meta":{"profile":["http://hl7.org/fhir/us/cqfmeasures/StructureDefinition/test-case-cqfm"]},"contained":[{"resourceType":"Parameters","id":"fdc731bf-924a-43d6-bfc5-bb4471d22935-parameters","parameter":[{"name":"subject","valueString":"73da474b-7013-4d51-8ef8-25c42c3fc686"}]}],"extension":[{"url":"http://hl7.org/fhir/us/cqfmeasures/StructureDefinition/cqfm-inputParameters","valueReference":{"reference":"#fdc731bf-924a-43d6-bfc5-bb4471d22935-parameters"}},{"url":"http://hl7.org/fhir/us/cqfmeasures/StructureDefinition/cqfm-testCaseDescription","valueMarkdown":"Pregnancy 1 delivery documented 2/1/2012, Gravida 1\nPregnancy 2  delivery documented 11/10/2012, Gravida 1 (note, unrealistic for pregnancy 2 to be Gravida 1 (again) but goal was to test if denominator would pass twice)"}],"modifierExtension":[{"url":"http://hl7.org/fhir/us/cqfmeasures/StructureDefinition/cqfm-isTestCase","valueBoolean":true}],"status":"complete","type":"individual","measure":"https://madie.cms.gov/Measure/CesareanBirthFHIR","period":{"start":"2025-01-01","end":"2025-12-31"},"group":[{"population":[{"code":{"coding":[{"system":"http://terminology.hl7.org/CodeSystem/measure-population","code":"initial-population","display":"Initial Population"}]},"count":2},{"code":{"coding":[{"system":"http://terminology.hl7.org/CodeSystem/measure-population","code":"denominator","display":"Denominator"}]},"count":2},{"code":{"coding":[{"system":"http://terminology.hl7.org/CodeSystem/measure-population","code":"denominator-exclusion","display":"Denominator Exclusion"}]},"count":0},{"code":{"coding":[{"system":"http://terminology.hl7.org/CodeSystem/measure-population","code":"numerator","display":"Numerator"}]},"count":2}]}]},"request":{"method":"PUT","url":"MeasureReport/59d8ab43-f893-4a79-92e0-daa012123d3d"}}]}