{"resourceType":"Bundle","id":"tests-8b0160c7-9fb9-47e0-8a7d-ac8afc5b3ea3-bundle","type":"transaction","entry":[{"fullUrl":"https://madie.cms.gov/Patient/8b0160c7-9fb9-47e0-8a7d-ac8afc5b3ea3","resource":{"resourceType":"Patient","id":"8b0160c7-9fb9-47e0-8a7d-ac8afc5b3ea3","meta":{"profile":["http://hl7.org/fhir/us/qicore/StructureDefinition/qicore-patient"]},"text":{"status":"generated","div":"<div xmlns=\"http://www.w3.org/1999/xhtml\"><div class=\"hapiHeaderText\">AssessGARelDtTimeB4TimeOfDel <b>DENPASS </b></div><table class=\"hapiPropertyTable\"><tbody><tr><td>Identifier</td><td>399eb1d15b18a70b0a1fc126870ee45fba3a6862e3faa339c35b816b8fe113c4</td></tr><tr><td>Date of birth</td><td><span>14 February 1985</span></td></tr></tbody></table></div>"},"extension":[{"url":"http://hl7.org/fhir/us/core/StructureDefinition/us-core-race","extension":[{"url":"ombCategory","valueCoding":{"system":"urn:oid:2.16.840.1.113883.6.238","code":"1002-5","display":"American Indian or Alaska Native","userSelected":true}},{"url":"text","valueString":"American Indian or Alaska Native"}]},{"url":"http://hl7.org/fhir/us/core/StructureDefinition/us-core-ethnicity","extension":[{"url":"ombCategory","valueCoding":{"system":"urn:oid:2.16.840.1.113883.6.238","code":"2135-2","display":"Hispanic or Latino","userSelected":true}},{"url":"text","valueString":"Hispanic or Latino"}]}],"identifier":[{"type":{"coding":[{"system":"http://terminology.hl7.org/CodeSystem/v2-0203","code":"MR"}]},"system":"https://bonnie-fhir.healthit.gov/","value":"63487c2e0968f80122540173"}],"active":true,"name":[{"use":"usual","family":"DENPass","given":["AssessGARelDtTimeB4TimeOfDel"]}],"gender":"female","birthDate":"1997-02-14"},"request":{"method":"PUT","url":"Patient/8b0160c7-9fb9-47e0-8a7d-ac8afc5b3ea3"}},{"fullUrl":"https://madie.cms.gov/Observation/5d014eb1b848460872380496","resource":{"resourceType":"Observation","id":"fa994db9-8c99-4b8e-85d7-557d63ee1c5b","meta":{"profile":["http://hl7.org/fhir/us/qicore/StructureDefinition/qicore-observation"]},"status":"final","category":[{"coding":[{"system":"http://terminology.hl7.org/CodeSystem/observation-category","code":"exam","display":"exam","userSelected":true}]}],"code":{"coding":[{"system":"http://loinc.org","code":"11884-4"}]},"subject":{"reference":"Patient/8b0160c7-9fb9-47e0-8a7d-ac8afc5b3ea3"},"effectiveDateTime":"2025-06-08T00:00:00.000+00:00","valueQuantity":{"value":37.0,"system":"http://unitsofmeasure.org","code":"weeks"}},"request":{"method":"PUT","url":"Observation/fa994db9-8c99-4b8e-85d7-557d63ee1c5b"}},{"fullUrl":"https://madie.cms.gov/Observation/5d014eb1b848460872380498","resource":{"resourceType":"Observation","id":"42e50a57-9fe8-4d75-9282-533bb0f711d2","meta":{"profile":["http://hl7.org/fhir/us/qicore/StructureDefinition/qicore-observation"]},"status":"final","category":[{"coding":[{"system":"http://terminology.hl7.org/CodeSystem/observation-category","code":"exam","display":"exam","userSelected":true}]}],"code":{"coding":[{"system":"http://loinc.org","code":"11996-6"}]},"subject":{"reference":"Patient/8b0160c7-9fb9-47e0-8a7d-ac8afc5b3ea3"},"effectiveDateTime":"2025-06-08T08:00:00.000+00:00","valueInteger":1},"request":{"method":"PUT","url":"Observation/42e50a57-9fe8-4d75-9282-533bb0f711d2"}},{"fullUrl":"https://madie.cms.gov/Observation/5e68ea2059d82f0000c95c9d","resource":{"resourceType":"Observation","id":"b0cabd17-a4da-4949-b6a1-f6bffc0fc969","meta":{"profile":["http://hl7.org/fhir/us/qicore/StructureDefinition/qicore-observation"]},"status":"final","category":[{"coding":[{"system":"http://terminology.hl7.org/CodeSystem/observation-category","code":"exam","display":"exam","userSelected":true}]}],"code":{"coding":[{"system":"http://loinc.org","code":"93857-1"}]},"subject":{"reference":"Patient/8b0160c7-9fb9-47e0-8a7d-ac8afc5b3ea3"},"effectiveDateTime":"2025-06-08T09:15:00.000+00:00","valueDateTime":"2025-06-08T09:15:00+00:00"},"request":{"method":"PUT","url":"Observation/b0cabd17-a4da-4949-b6a1-f6bffc0fc969"}},{"fullUrl":"https://madie.cms.gov/Encounter/5d014eb1b848460872380494","resource":{"resourceType":"Encounter","id":"a98157f1-5a18-4518-ad12-0f57da212cc8","meta":{"profile":["http://hl7.org/fhir/us/qicore/StructureDefinition/qicore-encounter"]},"status":"finished","class":{"system":"http://terminology.hl7.org/CodeSystem/v3-ActCode","code":"IMP","display":"inpatient encounter"},"type":[{"coding":[{"system":"http://snomed.info/sct","code":"183452005"}]}],"subject":{"reference":"Patient/8b0160c7-9fb9-47e0-8a7d-ac8afc5b3ea3"},"period":{"start":"2025-06-08T08:00:00.000Z","end":"2025-06-10T08:15:00.000Z"},"length":{"value":2.0,"unit":"days"},"diagnosis":[{"condition":{"reference":"Condition/delivery-of-singleton-f83c"},"use":{"coding":[{"system":"http://snomed.info/sct","code":"169826009","display":"Delivery of Singleton"}]}}]},"request":{"method":"PUT","url":"Encounter/a98157f1-5a18-4518-ad12-0f57da212cc8"}},{"fullUrl":"https://madie.cms.gov/Procedure/5d014eb1b848460872380495","resource":{"resourceType":"Procedure","id":"d0b2cfe6-05c9-494d-ab0c-a748c6e286a2","meta":{"profile":["http://hl7.org/fhir/us/qicore/StructureDefinition/qicore-procedure"]},"extension":[{"url":"http://hl7.org/fhir/us/qicore/StructureDefinition/qicore-recorded","valueDateTime":"2013-04-05T09:35:00-04:00"}],"status":"completed","code":{"coding":[{"system":"http://www.cms.gov/Medicare/Coding/ICD10","code":"10D07Z3"},{"system":"http://www.icd10data.com/icd10pcs","code":"10D07Z3","userSelected":true}]},"subject":{"reference":"Patient/8b0160c7-9fb9-47e0-8a7d-ac8afc5b3ea3"},"performedPeriod":{"start":"2025-06-08T08:00:00.000Z","end":"2025-06-08T09:15:00.000Z"}},"request":{"method":"PUT","url":"Procedure/d0b2cfe6-05c9-494d-ab0c-a748c6e286a2"}},{"fullUrl":"https://madie.cms.gov/Condition/delivery-of-singleton-f83c","resource":{"resourceType":"Condition","id":"ef6af324-37cd-4380-8d24-38bff66c567f","meta":{"profile":["http://hl7.org/fhir/us/qicore/StructureDefinition/qicore-condition"]},"category":[{"coding":[{"system":"http://terminology.hl7.org/CodeSystem/condition-category","code":"encounter-diagnosis","display":"Encounter Diagnosis"}]}],"code":{"coding":[{"system":"http://snomed.info/sct","version":"2022-09","code":"169826009","display":"Single live birth (finding)","userSelected":true}]},"subject":{"reference":"Patient/8b0160c7-9fb9-47e0-8a7d-ac8afc5b3ea3"},"recordedDate":"2025-10-19T08:00:00.000+00:00"},"request":{"method":"PUT","url":"Condition/ef6af324-37cd-4380-8d24-38bff66c567f"}},{"fullUrl":"https://madie.cms.gov/Coverage/1","resource":{"resourceType":"Coverage","id":"a279eeab-a823-45d1-b49b-d126afaf0de8","meta":{"profile":["http://hl7.org/fhir/us/qicore/StructureDefinition/qicore-coverage"]},"status":"active","beneficiary":{"reference":"Patient/8b0160c7-9fb9-47e0-8a7d-ac8afc5b3ea3"},"payor":[{"reference":"Organization/5224cb12-ed64-4d6d-ab28-40a64f0800f1"}]},"request":{"method":"PUT","url":"Coverage/a279eeab-a823-45d1-b49b-d126afaf0de8"}},{"fullUrl":"https://madie.cms.gov/Organization/123456","resource":{"resourceType":"Organization","id":"5224cb12-ed64-4d6d-ab28-40a64f0800f1","meta":{"profile":["http://hl7.org/fhir/us/qicore/StructureDefinition/qicore-organization"]},"identifier":[{"use":"temp","system":"urn:oid:2.16.840.1.113883.4.4","value":"21-3259825"}],"active":true,"type":[{"coding":[{"system":"http://terminology.hl7.org/CodeSystem/organization-type","code":"pay","display":"Payer"}]}],"name":"Blue Cross Blue Shield of Texas","telecom":[{"system":"phone","value":"(+1) 972-766-6900"}],"address":[{"use":"billing","type":"postal","line":["P.O. Box 660044"],"city":"Dallas","state":"TX","postalCode":"75266-0044","country":"USA"}]},"request":{"method":"PUT","url":"Organization/5224cb12-ed64-4d6d-ab28-40a64f0800f1"}},{"fullUrl":"https://madie.cms.gov/Practitioner/practitioner-123456","resource":{"resourceType":"Practitioner","id":"9840487e-56e1-423d-b784-bcb0af16f305","identifier":[{"system":"http://hl7.org/fhir/sid/us-npi","value":"123456"}],"name":[{"family":"Evil","prefix":["Dr"]}]},"request":{"method":"PUT","url":"Practitioner/9840487e-56e1-423d-b784-bcb0af16f305"}},{"fullUrl":"https://madie.cms.gov/MeasureReport/ec521c50-0321-4670-aae2-68d547a4c024","resource":{"resourceType":"MeasureReport","id":"ec521c50-0321-4670-aae2-68d547a4c024","meta":{"profile":["http://hl7.org/fhir/us/cqfmeasures/StructureDefinition/test-case-cqfm"]},"contained":[{"resourceType":"Parameters","id":"7a0dd946-cbcb-4165-9f9c-9cada847b457-parameters","parameter":[{"name":"subject","valueString":"8b0160c7-9fb9-47e0-8a7d-ac8afc5b3ea3"}]}],"extension":[{"url":"http://hl7.org/fhir/us/cqfmeasures/StructureDefinition/cqfm-inputParameters","valueReference":{"reference":"#7a0dd946-cbcb-4165-9f9c-9cada847b457-parameters"}},{"url":"http://hl7.org/fhir/us/cqfmeasures/StructureDefinition/cqfm-testCaseDescription","valueMarkdown":"Passes: IP, Pt is 27 years of age,  encounter dx of delivery of singleton, gravida, EGA @ 38 weeks  AsseEGA37 (same day, time B4 ) TmDeliver.  Tests \"Gestation37PlusWeeks.authorDatetime 1 day or less on or before TimeOfDelivery.relevantDatetime\".\n"}],"modifierExtension":[{"url":"http://hl7.org/fhir/us/cqfmeasures/StructureDefinition/cqfm-isTestCase","valueBoolean":true}],"status":"complete","type":"individual","measure":"https://madie.cms.gov/Measure/CesareanBirthFHIR","period":{"start":"2025-01-01","end":"2025-12-31"},"group":[{"population":[{"code":{"coding":[{"system":"http://terminology.hl7.org/CodeSystem/measure-population","code":"initial-population","display":"Initial Population"}]},"count":1},{"code":{"coding":[{"system":"http://terminology.hl7.org/CodeSystem/measure-population","code":"denominator","display":"Denominator"}]},"count":1},{"code":{"coding":[{"system":"http://terminology.hl7.org/CodeSystem/measure-population","code":"denominator-exclusion","display":"Denominator Exclusion"}]},"count":0},{"code":{"coding":[{"system":"http://terminology.hl7.org/CodeSystem/measure-population","code":"numerator","display":"Numerator"}]},"count":0}]}]},"request":{"method":"PUT","url":"MeasureReport/ec521c50-0321-4670-aae2-68d547a4c024"}}]}