{"resourceType":"Bundle","id":"tests-24466f7b-b722-4c54-9315-6116c81c3dd4-bundle","type":"transaction","entry":[{"fullUrl":"https://madie.cms.gov/Patient/24466f7b-b722-4c54-9315-6116c81c3dd4","resource":{"resourceType":"Patient","id":"24466f7b-b722-4c54-9315-6116c81c3dd4","meta":{"profile":["http://hl7.org/fhir/us/qicore/StructureDefinition/qicore-patient"]},"text":{"status":"generated","div":"<div xmlns=\"http://www.w3.org/1999/xhtml\"><div class=\"hapiHeaderText\">AssessLastGresultMissing <b>DENPASS </b></div><table class=\"hapiPropertyTable\"><tbody><tr><td>Identifier</td><td>a71c730e90531277040df227a6edf32e5d1d845b7af7c742588090b545382c72</td></tr><tr><td>Date of birth</td><td><span>14 February 1985</span></td></tr></tbody></table></div>"},"extension":[{"url":"http://hl7.org/fhir/us/core/StructureDefinition/us-core-race","extension":[{"url":"ombCategory","valueCoding":{"system":"urn:oid:2.16.840.1.113883.6.238","code":"1002-5","display":"American Indian or Alaska Native","userSelected":true}},{"url":"text","valueString":"American Indian or Alaska Native"}]},{"url":"http://hl7.org/fhir/us/core/StructureDefinition/us-core-ethnicity","extension":[{"url":"ombCategory","valueCoding":{"system":"urn:oid:2.16.840.1.113883.6.238","code":"2135-2","display":"Hispanic or Latino","userSelected":true}},{"url":"text","valueString":"Hispanic or Latino"}]}],"identifier":[{"type":{"coding":[{"system":"http://terminology.hl7.org/CodeSystem/v2-0203","code":"MR"}]},"system":"https://bonnie-fhir.healthit.gov/","value":"63487c300968f801225401ba"}],"active":true,"name":[{"use":"usual","family":"DENPass","given":["AssessLastGresultMissing"]}],"gender":"female","birthDate":"1997-02-14"},"request":{"method":"PUT","url":"Patient/24466f7b-b722-4c54-9315-6116c81c3dd4"}},{"fullUrl":"https://madie.cms.gov/Observation/5d014eb2b8484608723805b0","resource":{"resourceType":"Observation","id":"71676bc7-fd85-49d2-aea7-e9b9c6018f0e","meta":{"profile":["http://hl7.org/fhir/us/qicore/StructureDefinition/qicore-observation"]},"status":"final","category":[{"coding":[{"system":"http://terminology.hl7.org/CodeSystem/observation-category","code":"exam","display":"exam","userSelected":true}]}],"code":{"coding":[{"system":"http://loinc.org","code":"11996-6"}]},"subject":{"reference":"Patient/24466f7b-b722-4c54-9315-6116c81c3dd4"},"effectiveDateTime":"2025-06-08T08:00:00.000+00:00"},"request":{"method":"PUT","url":"Observation/71676bc7-fd85-49d2-aea7-e9b9c6018f0e"}},{"fullUrl":"https://madie.cms.gov/Observation/5d014eb2b8484608723805b1","resource":{"resourceType":"Observation","id":"f9d4b969-5e50-494b-968a-398eee87f071","meta":{"profile":["http://hl7.org/fhir/us/qicore/StructureDefinition/qicore-observation"]},"status":"final","category":[{"coding":[{"system":"http://terminology.hl7.org/CodeSystem/observation-category","code":"exam","display":"exam","userSelected":true}]}],"code":{"coding":[{"system":"http://loinc.org","code":"11884-4"}]},"subject":{"reference":"Patient/24466f7b-b722-4c54-9315-6116c81c3dd4"},"effectiveDateTime":"2025-06-08T09:15:00.000+00:00","valueQuantity":{"value":38.0,"system":"http://unitsofmeasure.org","code":"weeks"}},"request":{"method":"PUT","url":"Observation/f9d4b969-5e50-494b-968a-398eee87f071"}},{"fullUrl":"https://madie.cms.gov/Observation/5e695d027ffec70000320ca6","resource":{"resourceType":"Observation","id":"ccea4e98-159a-4a3b-9aeb-a948f5d00086","meta":{"profile":["http://hl7.org/fhir/us/qicore/StructureDefinition/qicore-observation"]},"status":"final","category":[{"coding":[{"system":"http://terminology.hl7.org/CodeSystem/observation-category","code":"exam","display":"exam","userSelected":true}]}],"code":{"coding":[{"system":"http://loinc.org","code":"93857-1"}]},"subject":{"reference":"Patient/24466f7b-b722-4c54-9315-6116c81c3dd4"},"effectiveDateTime":"2025-06-08T20:00:00.000+00:00","valueDateTime":"2025-06-08T20:00:00+00:00"},"request":{"method":"PUT","url":"Observation/ccea4e98-159a-4a3b-9aeb-a948f5d00086"}},{"fullUrl":"https://madie.cms.gov/Observation/5e94b7ff4e70a20000470ffe","resource":{"resourceType":"Observation","id":"373b82c5-5ef6-40a2-940f-b1b559470178","meta":{"profile":["http://hl7.org/fhir/us/qicore/StructureDefinition/qicore-observation"]},"status":"final","category":[{"coding":[{"system":"http://terminology.hl7.org/CodeSystem/observation-category","code":"exam","display":"exam","userSelected":true}]}],"code":{"coding":[{"system":"http://loinc.org","code":"11996-6"}]},"subject":{"reference":"Patient/24466f7b-b722-4c54-9315-6116c81c3dd4"},"effectiveDateTime":"2025-04-24T08:00:00.000+00:00","valueInteger":1},"request":{"method":"PUT","url":"Observation/373b82c5-5ef6-40a2-940f-b1b559470178"}},{"fullUrl":"https://madie.cms.gov/Encounter/5d014eb2b8484608723805ae","resource":{"resourceType":"Encounter","id":"6794e361-1bd6-40f6-9200-9095cc61a2ef","meta":{"profile":["http://hl7.org/fhir/us/qicore/StructureDefinition/qicore-encounter"]},"status":"finished","class":{"system":"http://terminology.hl7.org/CodeSystem/v3-ActCode","code":"IMP","display":"inpatient encounter"},"type":[{"coding":[{"system":"http://snomed.info/sct","code":"183452005"}]}],"subject":{"reference":"Patient/24466f7b-b722-4c54-9315-6116c81c3dd4"},"period":{"start":"2025-06-08T08:00:00.000Z","end":"2025-06-10T08:15:00.000Z"},"length":{"value":2.0,"unit":"days"},"diagnosis":[{"condition":{"reference":"Condition/delivery-of-singleton-16ea"}}]},"request":{"method":"PUT","url":"Encounter/6794e361-1bd6-40f6-9200-9095cc61a2ef"}},{"fullUrl":"https://madie.cms.gov/Procedure/5d014eb2b8484608723805af","resource":{"resourceType":"Procedure","id":"742254d5-e3a1-4491-9de0-6dab9795f255","meta":{"profile":["http://hl7.org/fhir/us/qicore/StructureDefinition/qicore-procedure"]},"extension":[{"url":"http://hl7.org/fhir/us/qicore/StructureDefinition/qicore-recorded","valueDateTime":"2013-04-05T09:35:00-04:00"}],"status":"completed","code":{"coding":[{"system":"http://www.cms.gov/Medicare/Coding/ICD10","code":"10D07Z3"},{"system":"http://www.icd10data.com/icd10pcs","code":"10D07Z3","userSelected":true}]},"subject":{"reference":"Patient/24466f7b-b722-4c54-9315-6116c81c3dd4"},"performedPeriod":{"start":"2025-06-08T08:10:00.000Z","end":"2025-06-08T09:14:00.000Z"}},"request":{"method":"PUT","url":"Procedure/742254d5-e3a1-4491-9de0-6dab9795f255"}},{"fullUrl":"https://madie.cms.gov/Condition/delivery-of-singleton-16ea","resource":{"resourceType":"Condition","id":"715dd184-697a-4326-a03c-04501872588d","meta":{"profile":["http://hl7.org/fhir/us/qicore/StructureDefinition/qicore-condition"]},"category":[{"coding":[{"system":"http://terminology.hl7.org/CodeSystem/condition-category","code":"encounter-diagnosis","display":"Encounter Diagnosis"}]}],"code":{"coding":[{"system":"http://snomed.info/sct","version":"2022-09","code":"169826009","display":"Single live birth (finding)","userSelected":true}]},"subject":{"reference":"Patient/24466f7b-b722-4c54-9315-6116c81c3dd4"},"recordedDate":"2025-10-14T08:00:00.000+00:00"},"request":{"method":"PUT","url":"Condition/715dd184-697a-4326-a03c-04501872588d"}},{"fullUrl":"https://madie.cms.gov/Coverage/1","resource":{"resourceType":"Coverage","id":"2178dcd6-a2bd-44ba-8865-f9c73636cab8","meta":{"profile":["http://hl7.org/fhir/us/qicore/StructureDefinition/qicore-coverage"]},"status":"active","beneficiary":{"reference":"Patient/24466f7b-b722-4c54-9315-6116c81c3dd4"},"payor":[{"reference":"Organization/33ead57e-5e04-40e4-95ea-bc3cdbd58917"}]},"request":{"method":"PUT","url":"Coverage/2178dcd6-a2bd-44ba-8865-f9c73636cab8"}},{"fullUrl":"https://madie.cms.gov/Organization/123456","resource":{"resourceType":"Organization","id":"33ead57e-5e04-40e4-95ea-bc3cdbd58917","meta":{"profile":["http://hl7.org/fhir/us/qicore/StructureDefinition/qicore-organization"]},"identifier":[{"use":"temp","system":"urn:oid:2.16.840.1.113883.4.4","value":"21-3259825"}],"active":true,"type":[{"coding":[{"system":"http://terminology.hl7.org/CodeSystem/organization-type","code":"pay","display":"Payer"}]}],"name":"Blue Cross Blue Shield of Texas","telecom":[{"system":"phone","value":"(+1) 972-766-6900"}],"address":[{"use":"billing","type":"postal","line":["P.O. Box 660044"],"city":"Dallas","state":"TX","postalCode":"75266-0044","country":"USA"}]},"request":{"method":"PUT","url":"Organization/33ead57e-5e04-40e4-95ea-bc3cdbd58917"}},{"fullUrl":"https://madie.cms.gov/Practitioner/practitioner-123456","resource":{"resourceType":"Practitioner","id":"f153db97-23ac-43a9-bf3a-b1225c230238","identifier":[{"system":"http://hl7.org/fhir/sid/us-npi","value":"123456"}],"name":[{"family":"Evil","prefix":["Dr"]}]},"request":{"method":"PUT","url":"Practitioner/f153db97-23ac-43a9-bf3a-b1225c230238"}},{"fullUrl":"https://madie.cms.gov/MeasureReport/2bdafc9f-e532-4c5e-87f7-3f4c49aea860","resource":{"resourceType":"MeasureReport","id":"2bdafc9f-e532-4c5e-87f7-3f4c49aea860","meta":{"profile":["http://hl7.org/fhir/us/cqfmeasures/StructureDefinition/test-case-cqfm"]},"contained":[{"resourceType":"Parameters","id":"ca8fc19d-bda8-4faf-b918-d89586f6a652-parameters","parameter":[{"name":"subject","valueString":"24466f7b-b722-4c54-9315-6116c81c3dd4"}]}],"extension":[{"url":"http://hl7.org/fhir/us/cqfmeasures/StructureDefinition/cqfm-inputParameters","valueReference":{"reference":"#ca8fc19d-bda8-4faf-b918-d89586f6a652-parameters"}},{"url":"http://hl7.org/fhir/us/cqfmeasures/StructureDefinition/cqfm-testCaseDescription","valueMarkdown":"Passes: IP, Passes DENOM because Last Gravida result is null, however previous G=1.   Pt is 27 years of age,  encounter dx delivery of singleton,  EGA @ 38 weeks\n"}],"modifierExtension":[{"url":"http://hl7.org/fhir/us/cqfmeasures/StructureDefinition/cqfm-isTestCase","valueBoolean":true}],"status":"complete","type":"individual","measure":"https://madie.cms.gov/Measure/CesareanBirthFHIR","period":{"start":"2025-01-01","end":"2025-12-31"},"group":[{"population":[{"code":{"coding":[{"system":"http://terminology.hl7.org/CodeSystem/measure-population","code":"initial-population","display":"Initial Population"}]},"count":1},{"code":{"coding":[{"system":"http://terminology.hl7.org/CodeSystem/measure-population","code":"denominator","display":"Denominator"}]},"count":1},{"code":{"coding":[{"system":"http://terminology.hl7.org/CodeSystem/measure-population","code":"denominator-exclusion","display":"Denominator Exclusion"}]},"count":0},{"code":{"coding":[{"system":"http://terminology.hl7.org/CodeSystem/measure-population","code":"numerator","display":"Numerator"}]},"count":0}]}]},"request":{"method":"PUT","url":"MeasureReport/2bdafc9f-e532-4c5e-87f7-3f4c49aea860"}}]}