{"resourceType":"Bundle","id":"tests-2d4e497c-bbdd-4ed7-bcb3-6dbe62aca6a4-bundle","type":"transaction","entry":[{"fullUrl":"https://madie.cms.gov/Patient/2d4e497c-bbdd-4ed7-bcb3-6dbe62aca6a4","resource":{"resourceType":"Patient","id":"2d4e497c-bbdd-4ed7-bcb3-6dbe62aca6a4","meta":{"profile":["http://hl7.org/fhir/us/qicore/StructureDefinition/qicore-patient"]},"text":{"status":"generated","div":"<div xmlns=\"http://www.w3.org/1999/xhtml\"><div class=\"hapiHeaderText\">AssessTerm0RelDateGT42wkB4TimeOfDeliv <b>DENFAIL </b></div><table class=\"hapiPropertyTable\"><tbody><tr><td>Identifier</td><td>89ad8d1292040330b5241fbe20c0a512329eaab9d686cfe4181f04edb3d44583</td></tr><tr><td>Date of birth</td><td><span>14 February 1985</span></td></tr></tbody></table></div>"},"extension":[{"url":"http://hl7.org/fhir/us/core/StructureDefinition/us-core-race","extension":[{"url":"ombCategory","valueCoding":{"system":"urn:oid:2.16.840.1.113883.6.238","code":"1002-5","display":"American Indian or Alaska Native","userSelected":true}},{"url":"text","valueString":"American Indian or Alaska Native"}]},{"url":"http://hl7.org/fhir/us/core/StructureDefinition/us-core-ethnicity","extension":[{"url":"ombCategory","valueCoding":{"system":"urn:oid:2.16.840.1.113883.6.238","code":"2135-2","display":"Hispanic or Latino","userSelected":true}},{"url":"text","valueString":"Hispanic or Latino"}]}],"identifier":[{"type":{"coding":[{"system":"http://terminology.hl7.org/CodeSystem/v2-0203","code":"MR"}]},"system":"https://bonnie-fhir.healthit.gov/","value":"63487c2d0968f8012254015f"}],"active":true,"name":[{"use":"usual","family":"DENFail","given":["AssessTerm0RelDateGT42wkB4TimeOfDeliv"]}],"gender":"female","birthDate":"1997-02-14"},"request":{"method":"PUT","url":"Patient/2d4e497c-bbdd-4ed7-bcb3-6dbe62aca6a4"}},{"fullUrl":"https://madie.cms.gov/Observation/5d014eb1b8484608723804c6","resource":{"resourceType":"Observation","id":"d4a51121-bec8-4eba-93d1-6ae31f7233cc","meta":{"profile":["http://hl7.org/fhir/us/qicore/StructureDefinition/qicore-observation"]},"status":"final","category":[{"coding":[{"system":"http://terminology.hl7.org/CodeSystem/observation-category","code":"exam","display":"exam","userSelected":true}]}],"code":{"coding":[{"system":"http://loinc.org","code":"11639-2"}]},"subject":{"reference":"Patient/2d4e497c-bbdd-4ed7-bcb3-6dbe62aca6a4"},"effectiveDateTime":"2024-07-19T09:00:00.000+00:00","valueInteger":0},"request":{"method":"PUT","url":"Observation/d4a51121-bec8-4eba-93d1-6ae31f7233cc"}},{"fullUrl":"https://madie.cms.gov/Observation/5d014eb1b8484608723804c8","resource":{"resourceType":"Observation","id":"ab4b6590-8613-4acb-a0a3-bf926e02186d","meta":{"profile":["http://hl7.org/fhir/us/qicore/StructureDefinition/qicore-observation"]},"status":"final","category":[{"coding":[{"system":"http://terminology.hl7.org/CodeSystem/observation-category","code":"exam","display":"exam","userSelected":true}]}],"code":{"coding":[{"system":"http://loinc.org","code":"11637-6"}]},"subject":{"reference":"Patient/2d4e497c-bbdd-4ed7-bcb3-6dbe62aca6a4"},"effectiveDateTime":"2024-09-19T09:00:00.000+00:00","valueInteger":0},"request":{"method":"PUT","url":"Observation/ab4b6590-8613-4acb-a0a3-bf926e02186d"}},{"fullUrl":"https://madie.cms.gov/Observation/5d014eb1b8484608723804cb","resource":{"resourceType":"Observation","id":"3b0f5e54-df7a-4279-b3ba-fdd472a8d3db","meta":{"profile":["http://hl7.org/fhir/us/qicore/StructureDefinition/qicore-observation"]},"status":"final","category":[{"coding":[{"system":"http://terminology.hl7.org/CodeSystem/observation-category","code":"exam","display":"exam","userSelected":true}]}],"code":{"coding":[{"system":"http://loinc.org","code":"11884-4"}]},"subject":{"reference":"Patient/2d4e497c-bbdd-4ed7-bcb3-6dbe62aca6a4"},"effectiveDateTime":"2025-06-08T20:00:00.000+00:00","valueQuantity":{"value":37.0,"system":"http://unitsofmeasure.org","code":"weeks"}},"request":{"method":"PUT","url":"Observation/3b0f5e54-df7a-4279-b3ba-fdd472a8d3db"}},{"fullUrl":"https://madie.cms.gov/Observation/5e69702c7ffec7000032279d","resource":{"resourceType":"Observation","id":"e2bd1dd3-7685-4375-abf7-ad11d2de5b0c","meta":{"profile":["http://hl7.org/fhir/us/qicore/StructureDefinition/qicore-observation"]},"status":"final","category":[{"coding":[{"system":"http://terminology.hl7.org/CodeSystem/observation-category","code":"exam","display":"exam","userSelected":true}]}],"code":{"coding":[{"system":"http://loinc.org","code":"93857-1"}]},"subject":{"reference":"Patient/2d4e497c-bbdd-4ed7-bcb3-6dbe62aca6a4"},"effectiveDateTime":"2025-06-08T20:00:00.000+00:00","valueDateTime":"2025-06-08T20:00:00+00:00"},"request":{"method":"PUT","url":"Observation/e2bd1dd3-7685-4375-abf7-ad11d2de5b0c"}},{"fullUrl":"https://madie.cms.gov/Encounter/5d014eb1b8484608723804c4","resource":{"resourceType":"Encounter","id":"a31ac41f-d695-4247-b12c-9481a632cb7b","meta":{"profile":["http://hl7.org/fhir/us/qicore/StructureDefinition/qicore-encounter"]},"status":"finished","class":{"system":"http://terminology.hl7.org/CodeSystem/v3-ActCode","code":"IMP","display":"inpatient encounter"},"type":[{"coding":[{"system":"http://snomed.info/sct","code":"8715000"}]}],"subject":{"reference":"Patient/2d4e497c-bbdd-4ed7-bcb3-6dbe62aca6a4"},"period":{"start":"2025-06-08T08:00:00.000Z","end":"2025-06-10T08:15:00.000Z"},"length":{"value":2.0,"unit":"days"},"diagnosis":[{"condition":{"reference":"Condition/delivery-of-singleton-f83c"},"use":{"coding":[{"system":"http://snomed.info/sct","code":"169826009","display":"Delivery of Singleton"}]}},{"condition":{"reference":"Condition/delivery-of-singleton-4b19"}}]},"request":{"method":"PUT","url":"Encounter/a31ac41f-d695-4247-b12c-9481a632cb7b"}},{"fullUrl":"https://madie.cms.gov/Procedure/5d014eb1b8484608723804c5","resource":{"resourceType":"Procedure","id":"67f68727-7e52-4400-862d-edc259216986","meta":{"profile":["http://hl7.org/fhir/us/qicore/StructureDefinition/qicore-procedure"]},"extension":[{"url":"http://hl7.org/fhir/us/qicore/StructureDefinition/qicore-recorded","valueDateTime":"2013-04-05T09:35:00-04:00"}],"status":"completed","code":{"coding":[{"system":"http://www.cms.gov/Medicare/Coding/ICD10","code":"10D00Z0"},{"system":"http://snomed.info/sct","code":"4504004"},{"system":"http://www.icd10data.com/icd10pcs","code":"10D00Z0","userSelected":true}]},"subject":{"reference":"Patient/2d4e497c-bbdd-4ed7-bcb3-6dbe62aca6a4"},"performedPeriod":{"start":"2025-06-08T20:00:00.000Z","end":"2025-06-08T20:15:00.000Z"}},"request":{"method":"PUT","url":"Procedure/67f68727-7e52-4400-862d-edc259216986"}},{"fullUrl":"https://madie.cms.gov/Condition/delivery-of-singleton-4b19","resource":{"resourceType":"Condition","id":"8be2ec9e-6e76-4bad-95d8-6f8eec35b45d","meta":{"profile":["http://hl7.org/fhir/us/qicore/StructureDefinition/qicore-condition"]},"category":[{"coding":[{"system":"http://terminology.hl7.org/CodeSystem/condition-category","code":"encounter-diagnosis","display":"Encounter Diagnosis"}]}],"code":{"coding":[{"system":"http://snomed.info/sct","version":"2022-09","code":"169826009","display":"Single live birth (finding)","userSelected":true}]},"subject":{"reference":"Patient/2d4e497c-bbdd-4ed7-bcb3-6dbe62aca6a4"},"recordedDate":"2025-10-21T08:00:00.000+00:00"},"request":{"method":"PUT","url":"Condition/8be2ec9e-6e76-4bad-95d8-6f8eec35b45d"}},{"fullUrl":"https://madie.cms.gov/Coverage/1","resource":{"resourceType":"Coverage","id":"6041b150-7c24-4e95-b515-1e6a5f114cbd","meta":{"profile":["http://hl7.org/fhir/us/qicore/StructureDefinition/qicore-coverage"]},"status":"active","beneficiary":{"reference":"Patient/2d4e497c-bbdd-4ed7-bcb3-6dbe62aca6a4"},"payor":[{"reference":"Organization/9e9b3f13-a353-4173-b29b-947d6f1f2031"}]},"request":{"method":"PUT","url":"Coverage/6041b150-7c24-4e95-b515-1e6a5f114cbd"}},{"fullUrl":"https://madie.cms.gov/Organization/123456","resource":{"resourceType":"Organization","id":"9e9b3f13-a353-4173-b29b-947d6f1f2031","meta":{"profile":["http://hl7.org/fhir/us/qicore/StructureDefinition/qicore-organization"]},"identifier":[{"use":"temp","system":"urn:oid:2.16.840.1.113883.4.4","value":"21-3259825"}],"active":true,"type":[{"coding":[{"system":"http://terminology.hl7.org/CodeSystem/organization-type","code":"pay","display":"Payer"}]}],"name":"Blue Cross Blue Shield of Texas","telecom":[{"system":"phone","value":"(+1) 972-766-6900"}],"address":[{"use":"billing","type":"postal","line":["P.O. Box 660044"],"city":"Dallas","state":"TX","postalCode":"75266-0044","country":"USA"}]},"request":{"method":"PUT","url":"Organization/9e9b3f13-a353-4173-b29b-947d6f1f2031"}},{"fullUrl":"https://madie.cms.gov/Practitioner/practitioner-123456","resource":{"resourceType":"Practitioner","id":"0e984c3d-1749-4e9b-88fb-62d1af28adb4","identifier":[{"system":"http://hl7.org/fhir/sid/us-npi","value":"123456"}],"name":[{"family":"Evil","prefix":["Dr"]}]},"request":{"method":"PUT","url":"Practitioner/0e984c3d-1749-4e9b-88fb-62d1af28adb4"}},{"fullUrl":"https://madie.cms.gov/MeasureReport/63a25af6-b32f-43fa-8160-c74352d55bb7","resource":{"resourceType":"MeasureReport","id":"63a25af6-b32f-43fa-8160-c74352d55bb7","meta":{"profile":["http://hl7.org/fhir/us/cqfmeasures/StructureDefinition/test-case-cqfm"]},"contained":[{"resourceType":"Parameters","id":"01e42825-9d26-4cf6-9142-2f2371990366-parameters","parameter":[{"name":"subject","valueString":"2d4e497c-bbdd-4ed7-bcb3-6dbe62aca6a4"}]}],"extension":[{"url":"http://hl7.org/fhir/us/cqfmeasures/StructureDefinition/cqfm-inputParameters","valueReference":{"reference":"#01e42825-9d26-4cf6-9142-2f2371990366-parameters"}},{"url":"http://hl7.org/fhir/us/cqfmeasures/StructureDefinition/cqfm-testCaseDescription","valueMarkdown":"\"Preterm Births=0, effective date/time < 42weeks prior to Asse delivery\nTerm Newborn=0, effective date/time > 42weeks prior to Asse delivery, DENOM Fail\"\n"}],"modifierExtension":[{"url":"http://hl7.org/fhir/us/cqfmeasures/StructureDefinition/cqfm-isTestCase","valueBoolean":true}],"status":"complete","type":"individual","measure":"https://madie.cms.gov/Measure/CesareanBirthFHIR","period":{"start":"2025-01-01","end":"2025-12-31"},"group":[{"population":[{"code":{"coding":[{"system":"http://terminology.hl7.org/CodeSystem/measure-population","code":"initial-population","display":"Initial Population"}]},"count":1},{"code":{"coding":[{"system":"http://terminology.hl7.org/CodeSystem/measure-population","code":"denominator","display":"Denominator"}]},"count":0},{"code":{"coding":[{"system":"http://terminology.hl7.org/CodeSystem/measure-population","code":"denominator-exclusion","display":"Denominator Exclusion"}]},"count":0},{"code":{"coding":[{"system":"http://terminology.hl7.org/CodeSystem/measure-population","code":"numerator","display":"Numerator"}]},"count":0}]}]},"request":{"method":"PUT","url":"MeasureReport/63a25af6-b32f-43fa-8160-c74352d55bb7"}}]}