{"resourceType":"Bundle","id":"tests-f247e141-7e9f-42ec-bef2-869e381ea00d-bundle","type":"transaction","entry":[{"fullUrl":"https://madie.cms.gov/Patient/f247e141-7e9f-42ec-bef2-869e381ea00d","resource":{"resourceType":"Patient","id":"f247e141-7e9f-42ec-bef2-869e381ea00d","meta":{"profile":["http://hl7.org/fhir/us/qicore/StructureDefinition/qicore-patient"]},"text":{"status":"generated","div":"<div xmlns=\"http://www.w3.org/1999/xhtml\"><div class=\"hapiHeaderText\">ProcCsectButVagDelCode <b>NUMPASS </b></div><table class=\"hapiPropertyTable\"><tbody><tr><td>Identifier</td><td>8b7a8f99f3e1839b490bb3076b6cc0feec17e2d3d2b6db6ff89c3711196a7db2</td></tr><tr><td>Date of birth</td><td><span>14 February 1985</span></td></tr></tbody></table></div>"},"extension":[{"url":"http://hl7.org/fhir/us/core/StructureDefinition/us-core-race","extension":[{"url":"ombCategory","valueCoding":{"system":"urn:oid:2.16.840.1.113883.6.238","code":"1002-5","display":"American Indian or Alaska Native","userSelected":true}},{"url":"text","valueString":"American Indian or Alaska Native"}]},{"url":"http://hl7.org/fhir/us/core/StructureDefinition/us-core-ethnicity","extension":[{"url":"ombCategory","valueCoding":{"system":"urn:oid:2.16.840.1.113883.6.238","code":"2135-2","display":"Hispanic or Latino","userSelected":true}},{"url":"text","valueString":"Hispanic or Latino"}]}],"identifier":[{"type":{"coding":[{"system":"http://terminology.hl7.org/CodeSystem/v2-0203","code":"MR"}]},"system":"https://bonnie-fhir.healthit.gov/","value":"63487c2d0968f80122540164"}],"active":true,"name":[{"use":"usual","family":"NUMPass","given":["ProcCsectButVagDelCode"]}],"gender":"female","birthDate":"1997-02-14"},"request":{"method":"PUT","url":"Patient/f247e141-7e9f-42ec-bef2-869e381ea00d"}},{"fullUrl":"https://madie.cms.gov/Observation/5d014eb1b848460872380546","resource":{"resourceType":"Observation","id":"a13ead81-1fb6-4c49-b636-73ce653f0d69","meta":{"profile":["http://hl7.org/fhir/us/qicore/StructureDefinition/qicore-observation"]},"status":"final","category":[{"coding":[{"system":"http://terminology.hl7.org/CodeSystem/observation-category","code":"exam","display":"exam","userSelected":true}]}],"code":{"coding":[{"system":"http://loinc.org","code":"11977-6"}]},"subject":{"reference":"Patient/f247e141-7e9f-42ec-bef2-869e381ea00d"},"effectiveDateTime":"2025-03-08T09:00:00.000+00:00","valueInteger":0},"request":{"method":"PUT","url":"Observation/a13ead81-1fb6-4c49-b636-73ce653f0d69"}},{"fullUrl":"https://madie.cms.gov/Observation/5d014eb1b848460872380548","resource":{"resourceType":"Observation","id":"2989be62-fcbd-402a-9f7e-57c7f5070544","meta":{"profile":["http://hl7.org/fhir/us/qicore/StructureDefinition/qicore-observation"]},"status":"final","category":[{"coding":[{"system":"http://terminology.hl7.org/CodeSystem/observation-category","code":"exam","display":"exam","userSelected":true}]}],"code":{"coding":[{"system":"http://loinc.org","code":"11996-6"}]},"subject":{"reference":"Patient/f247e141-7e9f-42ec-bef2-869e381ea00d"},"effectiveDateTime":"2025-03-09T08:00:00.000+00:00","valueInteger":1},"request":{"method":"PUT","url":"Observation/2989be62-fcbd-402a-9f7e-57c7f5070544"}},{"fullUrl":"https://madie.cms.gov/Observation/5d014eb1b84846087238054a","resource":{"resourceType":"Observation","id":"7281822c-111b-42fe-a1ea-e3394ea59f71","meta":{"profile":["http://hl7.org/fhir/us/qicore/StructureDefinition/qicore-observation"]},"status":"final","category":[{"coding":[{"system":"http://terminology.hl7.org/CodeSystem/observation-category","code":"exam","display":"exam","userSelected":true}]}],"code":{"coding":[{"system":"http://loinc.org","code":"11884-4"}]},"subject":{"reference":"Patient/f247e141-7e9f-42ec-bef2-869e381ea00d"},"effectiveDateTime":"2025-06-08T17:00:00.000+00:00","valueQuantity":{"value":37.0,"system":"http://unitsofmeasure.org","code":"weeks"}},"request":{"method":"PUT","url":"Observation/7281822c-111b-42fe-a1ea-e3394ea59f71"}},{"fullUrl":"https://madie.cms.gov/Observation/5e69404d7ffec7000031f6ad","resource":{"resourceType":"Observation","id":"e7f5436d-c137-4efd-904f-76c1d8813556","meta":{"profile":["http://hl7.org/fhir/us/qicore/StructureDefinition/qicore-observation"]},"status":"final","category":[{"coding":[{"system":"http://loinc.org","code":"93857-1","display":"Date and time of obstetric delivery","userSelected":true}]}],"code":{"coding":[{"system":"http://loinc.org","code":"93857-1"}]},"subject":{"reference":"Patient/f247e141-7e9f-42ec-bef2-869e381ea00d"},"effectiveDateTime":"2025-06-08T20:00:00.000+00:00","valueDateTime":"2025-06-08T20:00:00+00:00"},"request":{"method":"PUT","url":"Observation/e7f5436d-c137-4efd-904f-76c1d8813556"}},{"fullUrl":"https://madie.cms.gov/Encounter/5d014eb1b848460872380543","resource":{"resourceType":"Encounter","id":"26931306-fba1-4db4-9e46-e20848af45d9","meta":{"profile":["http://hl7.org/fhir/us/qicore/StructureDefinition/qicore-encounter"]},"status":"finished","class":{"system":"http://terminology.hl7.org/CodeSystem/v3-ActCode","code":"IMP","display":"inpatient encounter"},"type":[{"coding":[{"system":"http://snomed.info/sct","code":"8715000"}]}],"subject":{"reference":"Patient/f247e141-7e9f-42ec-bef2-869e381ea00d"},"period":{"start":"2025-06-08T08:00:00.000Z","end":"2025-06-10T08:15:00.000Z"},"diagnosis":[{"condition":{"reference":"Condition/delivery-of-singleton-df6d"}}]},"request":{"method":"PUT","url":"Encounter/26931306-fba1-4db4-9e46-e20848af45d9"}},{"fullUrl":"https://madie.cms.gov/Procedure/5d014eb1b848460872380544","resource":{"resourceType":"Procedure","id":"8c15a5c8-ad2c-4b46-b13f-2a6c2dbbb77d","meta":{"profile":["http://hl7.org/fhir/us/qicore/StructureDefinition/qicore-procedure"]},"extension":[{"url":"http://hl7.org/fhir/us/qicore/StructureDefinition/qicore-recorded","valueDateTime":"2013-04-05T09:35:00-04:00"}],"status":"completed","code":{"coding":[{"system":"http://www.cms.gov/Medicare/Coding/ICD10","code":"10D07Z3"},{"system":"http://www.icd10data.com/icd10pcs","code":"10D07Z3","userSelected":true}]},"subject":{"reference":"Patient/f247e141-7e9f-42ec-bef2-869e381ea00d"},"performedPeriod":{"start":"2025-06-08T20:00:00.000Z","end":"2025-06-08T21:15:00.000Z"}},"request":{"method":"PUT","url":"Procedure/8c15a5c8-ad2c-4b46-b13f-2a6c2dbbb77d"}},{"fullUrl":"https://madie.cms.gov/Procedure/5d014eb1b848460872380545","resource":{"resourceType":"Procedure","id":"6202103f-ff45-414d-ae80-6792b6e7fcea","meta":{"profile":["http://hl7.org/fhir/us/qicore/StructureDefinition/qicore-procedure"]},"extension":[{"url":"http://hl7.org/fhir/us/qicore/StructureDefinition/qicore-recorded","valueDateTime":"2013-04-05T09:35:00-04:00"}],"status":"completed","code":{"coding":[{"system":"http://snomed.info/sct","code":"11466000"}]},"subject":{"reference":"Patient/f247e141-7e9f-42ec-bef2-869e381ea00d"},"performedPeriod":{"start":"2025-06-08T20:00:00.000Z","end":"2025-06-08T21:15:00.000Z"}},"request":{"method":"PUT","url":"Procedure/6202103f-ff45-414d-ae80-6792b6e7fcea"}},{"fullUrl":"https://madie.cms.gov/Condition/delivery-of-singleton-df6d","resource":{"resourceType":"Condition","id":"07b4de3a-5097-46f6-9382-cc17e1f48462","meta":{"profile":["http://hl7.org/fhir/us/qicore/StructureDefinition/qicore-condition"]},"category":[{"coding":[{"system":"http://terminology.hl7.org/CodeSystem/condition-category","code":"encounter-diagnosis","display":"Encounter Diagnosis"}]}],"code":{"coding":[{"system":"http://snomed.info/sct","version":"2022-09","code":"169826009","display":"Single live birth (finding)","userSelected":true}]},"subject":{"reference":"Patient/f247e141-7e9f-42ec-bef2-869e381ea00d"},"recordedDate":"2025-10-17T08:00:00.000+00:00"},"request":{"method":"PUT","url":"Condition/07b4de3a-5097-46f6-9382-cc17e1f48462"}},{"fullUrl":"https://madie.cms.gov/Coverage/1","resource":{"resourceType":"Coverage","id":"fe75054d-8f44-4a15-85cb-71a526c3f358","meta":{"profile":["http://hl7.org/fhir/us/qicore/StructureDefinition/qicore-coverage"]},"status":"active","beneficiary":{"reference":"Patient/f247e141-7e9f-42ec-bef2-869e381ea00d"},"payor":[{"reference":"Organization/4b5a882f-1f43-485c-85c6-f5ad2337d5b1"}]},"request":{"method":"PUT","url":"Coverage/fe75054d-8f44-4a15-85cb-71a526c3f358"}},{"fullUrl":"https://madie.cms.gov/Organization/123456","resource":{"resourceType":"Organization","id":"4b5a882f-1f43-485c-85c6-f5ad2337d5b1","meta":{"profile":["http://hl7.org/fhir/us/qicore/StructureDefinition/qicore-organization"]},"identifier":[{"use":"temp","system":"urn:oid:2.16.840.1.113883.4.4","value":"21-3259825"}],"active":true,"type":[{"coding":[{"system":"http://terminology.hl7.org/CodeSystem/organization-type","code":"pay","display":"Payer"}]}],"name":"Blue Cross Blue Shield of Texas","telecom":[{"system":"phone","value":"(+1) 972-766-6900"}],"address":[{"use":"billing","type":"postal","line":["P.O. Box 660044"],"city":"Dallas","state":"TX","postalCode":"75266-0044","country":"USA"}]},"request":{"method":"PUT","url":"Organization/4b5a882f-1f43-485c-85c6-f5ad2337d5b1"}},{"fullUrl":"https://madie.cms.gov/Practitioner/practitioner-123456","resource":{"resourceType":"Practitioner","id":"9c459b46-a929-4267-90cb-c9420b99725d","identifier":[{"system":"http://hl7.org/fhir/sid/us-npi","value":"123456"}],"name":[{"family":"Evil","prefix":["Dr"]}]},"request":{"method":"PUT","url":"Practitioner/9c459b46-a929-4267-90cb-c9420b99725d"}},{"fullUrl":"https://madie.cms.gov/MeasureReport/7b49fd5c-2001-4c39-933e-ead8c4318f2a","resource":{"resourceType":"MeasureReport","id":"7b49fd5c-2001-4c39-933e-ead8c4318f2a","meta":{"profile":["http://hl7.org/fhir/us/cqfmeasures/StructureDefinition/test-case-cqfm"]},"contained":[{"resourceType":"Parameters","id":"44701719-8766-46ad-90c7-265d7eb4a189-parameters","parameter":[{"name":"subject","valueString":"f247e141-7e9f-42ec-bef2-869e381ea00d"}]}],"extension":[{"url":"http://hl7.org/fhir/us/cqfmeasures/StructureDefinition/cqfm-inputParameters","valueReference":{"reference":"#44701719-8766-46ad-90c7-265d7eb4a189-parameters"}},{"url":"http://hl7.org/fhir/us/cqfmeasures/StructureDefinition/cqfm-testCaseDescription","valueMarkdown":"Passes IP, DEN, NUM.  Passes NUM as Proc Perf = Csection  although \"Delivery Procedures\" indicates vaginal delivery."}],"modifierExtension":[{"url":"http://hl7.org/fhir/us/cqfmeasures/StructureDefinition/cqfm-isTestCase","valueBoolean":true}],"status":"complete","type":"individual","measure":"https://madie.cms.gov/Measure/CesareanBirthFHIR","period":{"start":"2025-01-01","end":"2025-12-31"},"group":[{"population":[{"code":{"coding":[{"system":"http://terminology.hl7.org/CodeSystem/measure-population","code":"initial-population","display":"Initial Population"}]},"count":1},{"code":{"coding":[{"system":"http://terminology.hl7.org/CodeSystem/measure-population","code":"denominator","display":"Denominator"}]},"count":1},{"code":{"coding":[{"system":"http://terminology.hl7.org/CodeSystem/measure-population","code":"denominator-exclusion","display":"Denominator Exclusion"}]},"count":0},{"code":{"coding":[{"system":"http://terminology.hl7.org/CodeSystem/measure-population","code":"numerator","display":"Numerator"}]},"count":1}]}]},"request":{"method":"PUT","url":"MeasureReport/7b49fd5c-2001-4c39-933e-ead8c4318f2a"}}]}