{"resourceType":"Bundle","id":"tests-6d9334c8-ff66-4358-9502-8e8a38a69205-bundle","type":"transaction","entry":[{"fullUrl":"https://madie.cms.gov/Patient/6d9334c8-ff66-4358-9502-8e8a38a69205","resource":{"resourceType":"Patient","id":"6d9334c8-ff66-4358-9502-8e8a38a69205","meta":{"profile":["http://hl7.org/fhir/us/qicore/StructureDefinition/qicore-patient"]},"text":{"status":"generated","div":"<div xmlns=\"http://www.w3.org/1999/xhtml\"><div class=\"hapiHeaderText\">ProcDelivStartB4EncInpStart <b>IPFAIL </b></div><table class=\"hapiPropertyTable\"><tbody><tr><td>Identifier</td><td>8ebfa8812ad70a141daae232885be39a56b9d3448a9add93e211911275da5f6a</td></tr><tr><td>Date of birth</td><td><span>14 February 1985</span></td></tr></tbody></table></div>"},"extension":[{"url":"http://hl7.org/fhir/us/core/StructureDefinition/us-core-race","extension":[{"url":"ombCategory","valueCoding":{"system":"urn:oid:2.16.840.1.113883.6.238","code":"1002-5","display":"American Indian or Alaska Native","userSelected":true}},{"url":"text","valueString":"American Indian or Alaska Native"}]},{"url":"http://hl7.org/fhir/us/core/StructureDefinition/us-core-ethnicity","extension":[{"url":"ombCategory","valueCoding":{"system":"urn:oid:2.16.840.1.113883.6.238","code":"2135-2","display":"Hispanic or Latino","userSelected":true}},{"url":"text","valueString":"Hispanic or Latino"}]}],"identifier":[{"type":{"coding":[{"system":"http://terminology.hl7.org/CodeSystem/v2-0203","code":"MR"}]},"system":"https://bonnie-fhir.healthit.gov/","value":"63487c2e0968f80122540181"}],"active":true,"name":[{"use":"usual","family":"IPFail","given":["ProcDelivStartDayB4EncInpStart"]}],"gender":"female","birthDate":"1985-02-14"},"request":{"method":"PUT","url":"Patient/6d9334c8-ff66-4358-9502-8e8a38a69205"}},{"fullUrl":"https://madie.cms.gov/Encounter/5d014eb1b848460872380478","resource":{"resourceType":"Encounter","id":"958a1121-ffa2-485c-b6b0-5ffbac6da15d","meta":{"profile":["http://hl7.org/fhir/us/qicore/StructureDefinition/qicore-encounter"]},"status":"finished","class":{"system":"http://terminology.hl7.org/CodeSystem/v3-ActCode","code":"IMP","display":"inpatient encounter"},"type":[{"coding":[{"system":"http://snomed.info/sct","code":"8715000"}]}],"subject":{"reference":"Patient/6d9334c8-ff66-4358-9502-8e8a38a69205"},"period":{"start":"2025-11-28T08:00:00.000Z","end":"2025-11-30T08:15:00.000Z"},"length":{"value":2.0,"unit":"days"},"diagnosis":[{"condition":{"reference":"Condition/Condition-2"},"use":{"coding":[{"system":"http://snomed.info/sct","code":"169826009","display":"Delivery of Singleton"}]}}]},"request":{"method":"PUT","url":"Encounter/958a1121-ffa2-485c-b6b0-5ffbac6da15d"}},{"fullUrl":"https://madie.cms.gov/Procedure/5d014eb1b848460872380479","resource":{"resourceType":"Procedure","id":"c1042fd1-ac0c-4ac5-bfdf-388a93c4201d","meta":{"profile":["http://hl7.org/fhir/us/qicore/StructureDefinition/qicore-procedure"]},"extension":[{"url":"http://hl7.org/fhir/us/qicore/StructureDefinition/qicore-recorded","valueDateTime":"2013-04-05T09:35:00-04:00"}],"status":"completed","code":{"coding":[{"system":"http://www.cms.gov/Medicare/Coding/ICD10","code":"10D00Z0"},{"system":"http://www.icd10data.com/icd10pcs","code":"10D00Z0","userSelected":true}]},"subject":{"reference":"Patient/6d9334c8-ff66-4358-9502-8e8a38a69205"},"performedDateTime":"2025-11-27T23:59:00.000+00:00"},"request":{"method":"PUT","url":"Procedure/c1042fd1-ac0c-4ac5-bfdf-388a93c4201d"}},{"fullUrl":"https://madie.cms.gov/Coverage/1","resource":{"resourceType":"Coverage","id":"1a78f7bb-22a9-4d7a-8657-4f5cd6eabd45","meta":{"profile":["http://hl7.org/fhir/us/qicore/StructureDefinition/qicore-coverage"]},"status":"active","beneficiary":{"reference":"Patient/6d9334c8-ff66-4358-9502-8e8a38a69205"},"payor":[{"reference":"Organization/4b5a882f-1f43-485c-85c6-f5ad2337d5b1"}]},"request":{"method":"PUT","url":"Coverage/1a78f7bb-22a9-4d7a-8657-4f5cd6eabd45"}},{"fullUrl":"https://madie.cms.gov/Organization/123456","resource":{"resourceType":"Organization","id":"4b5a882f-1f43-485c-85c6-f5ad2337d5b1","meta":{"profile":["http://hl7.org/fhir/us/qicore/StructureDefinition/qicore-organization"]},"identifier":[{"use":"temp","system":"urn:oid:2.16.840.1.113883.4.4","value":"21-3259825"}],"active":true,"type":[{"coding":[{"system":"http://terminology.hl7.org/CodeSystem/organization-type","code":"pay","display":"Payer"}]}],"name":"Blue Cross Blue Shield of Texas","telecom":[{"system":"phone","value":"(+1) 972-766-6900"}],"address":[{"use":"billing","type":"postal","line":["P.O. Box 660044"],"city":"Dallas","state":"TX","postalCode":"75266-0044","country":"USA"}]},"request":{"method":"PUT","url":"Organization/4b5a882f-1f43-485c-85c6-f5ad2337d5b1"}},{"fullUrl":"https://madie.cms.gov/Practitioner/practitioner-123456","resource":{"resourceType":"Practitioner","id":"ff18a2d2-ab6f-45ee-8dd9-9865e265bd90","identifier":[{"system":"http://hl7.org/fhir/sid/us-npi","value":"123456"}],"name":[{"family":"Evil","prefix":["Dr"]}]},"request":{"method":"PUT","url":"Practitioner/ff18a2d2-ab6f-45ee-8dd9-9865e265bd90"}},{"fullUrl":"https://madie.cms.gov/MeasureReport/dbed14f7-9f55-4064-8cc5-5e9d11fa368d","resource":{"resourceType":"MeasureReport","id":"dbed14f7-9f55-4064-8cc5-5e9d11fa368d","meta":{"profile":["http://hl7.org/fhir/us/cqfmeasures/StructureDefinition/test-case-cqfm"]},"contained":[{"resourceType":"Parameters","id":"f0154189-0b99-493a-9cca-8e01fee8a1cb-parameters","parameter":[{"name":"subject","valueString":"6d9334c8-ff66-4358-9502-8e8a38a69205"}]}],"extension":[{"url":"http://hl7.org/fhir/us/cqfmeasures/StructureDefinition/cqfm-inputParameters","valueReference":{"reference":"#f0154189-0b99-493a-9cca-8e01fee8a1cb-parameters"}},{"url":"http://hl7.org/fhir/us/cqfmeasures/StructureDefinition/cqfm-testCaseDescription","valueMarkdown":"Fails IPP because Proc Delivery starts before Inpatient Encounter. Parity result 0 (auth at 42 weeks) EGA 40 weeks;   Tests \"DeliveryProcedures.relevantPeriod starts during QualifyingEncounters.relevantPeriod\".\n"}],"modifierExtension":[{"url":"http://hl7.org/fhir/us/cqfmeasures/StructureDefinition/cqfm-isTestCase","valueBoolean":true}],"status":"complete","type":"individual","measure":"https://madie.cms.gov/Measure/CesareanBirthFHIR","period":{"start":"2025-01-01","end":"2025-12-31"},"group":[{"population":[{"code":{"coding":[{"system":"http://terminology.hl7.org/CodeSystem/measure-population","code":"initial-population","display":"Initial Population"}]},"count":0},{"code":{"coding":[{"system":"http://terminology.hl7.org/CodeSystem/measure-population","code":"denominator","display":"Denominator"}]},"count":0},{"code":{"coding":[{"system":"http://terminology.hl7.org/CodeSystem/measure-population","code":"denominator-exclusion","display":"Denominator Exclusion"}]},"count":0},{"code":{"coding":[{"system":"http://terminology.hl7.org/CodeSystem/measure-population","code":"numerator","display":"Numerator"}]},"count":0}]}]},"request":{"method":"PUT","url":"MeasureReport/dbed14f7-9f55-4064-8cc5-5e9d11fa368d"}}]}