{"resourceType":"Bundle","id":"tests-5580cb1d-0ac8-459b-9460-85ad6fe489dc-bundle","type":"transaction","entry":[{"fullUrl":"https://madie.cms.gov/Patient/5580cb1d-0ac8-459b-9460-85ad6fe489dc","resource":{"resourceType":"Patient","id":"5580cb1d-0ac8-459b-9460-85ad6fe489dc","meta":{"profile":["http://hl7.org/fhir/us/qicore/StructureDefinition/qicore-patient"]},"text":{"status":"generated","div":"<div xmlns=\"http://www.w3.org/1999/xhtml\"><div class=\"hapiHeaderText\">NonDelProcedure (hip replacement) <b>IPFAIL </b></div><table class=\"hapiPropertyTable\"><tbody><tr><td>Identifier</td><td>b959efd46f0d0c24423af538a038b110c6775f5c81efccdbf17ac9abefb49df4</td></tr><tr><td>Date of birth</td><td><span>14 February 1985</span></td></tr></tbody></table></div>"},"extension":[{"url":"http://hl7.org/fhir/us/core/StructureDefinition/us-core-race","extension":[{"url":"ombCategory","valueCoding":{"system":"urn:oid:2.16.840.1.113883.6.238","code":"1002-5","display":"American Indian or Alaska Native","userSelected":true}},{"url":"text","valueString":"American Indian or Alaska Native"}]},{"url":"http://hl7.org/fhir/us/core/StructureDefinition/us-core-ethnicity","extension":[{"url":"ombCategory","valueCoding":{"system":"urn:oid:2.16.840.1.113883.6.238","code":"2135-2","display":"Hispanic or Latino","userSelected":true}},{"url":"text","valueString":"Hispanic or Latino"}]}],"identifier":[{"type":{"coding":[{"system":"http://terminology.hl7.org/CodeSystem/v2-0203","code":"MR"}]},"system":"https://bonnie-fhir.healthit.gov/","value":"63487c2e0968f80122540186"}],"active":true,"name":[{"use":"usual","family":"IPFail","given":["NonDelProcedure (hip replacement)"]}],"gender":"female","birthDate":"1985-02-14"},"request":{"method":"PUT","url":"Patient/5580cb1d-0ac8-459b-9460-85ad6fe489dc"}},{"fullUrl":"https://madie.cms.gov/Encounter/5d014eb2b8484608723805da","resource":{"resourceType":"Encounter","id":"cebc568c-6f09-4d09-b6fe-71c75d65fbea","meta":{"profile":["http://hl7.org/fhir/us/qicore/StructureDefinition/qicore-encounter"]},"status":"finished","class":{"system":"http://terminology.hl7.org/CodeSystem/v3-ActCode","code":"IMP","display":"inpatient encounter"},"type":[{"coding":[{"system":"http://snomed.info/sct","code":"8715000"}]}],"subject":{"reference":"Patient/5580cb1d-0ac8-459b-9460-85ad6fe489dc"},"period":{"start":"2025-11-28T08:00:00.000Z","end":"2025-11-30T08:15:00.000Z"},"diagnosis":[{"condition":{"reference":"Condition/Condition-2"},"use":{"coding":[{"system":"http://snomed.info/sct","code":"169826009","display":"Delivery of Singleton"}]}}]},"request":{"method":"PUT","url":"Encounter/cebc568c-6f09-4d09-b6fe-71c75d65fbea"}},{"fullUrl":"https://madie.cms.gov/Procedure/5d014eb2b8484608723805db","resource":{"resourceType":"Procedure","id":"93215418-55ce-48a5-9353-a124d485f7a4","meta":{"profile":["http://hl7.org/fhir/us/qicore/StructureDefinition/qicore-procedure"]},"extension":[{"url":"http://hl7.org/fhir/us/qicore/StructureDefinition/qicore-recorded","valueDateTime":"2013-04-05T09:35:00-04:00"}],"status":"completed","code":{"coding":[{"system":"http://www.cms.gov/Medicare/Coding/ICD10","code":"OSR9019","userSelected":true}]},"subject":{"reference":"Patient/5580cb1d-0ac8-459b-9460-85ad6fe489dc"},"performedPeriod":{"start":"2025-11-28T08:00:00.000Z"}},"request":{"method":"PUT","url":"Procedure/93215418-55ce-48a5-9353-a124d485f7a4"}},{"fullUrl":"https://madie.cms.gov/Coverage/1","resource":{"resourceType":"Coverage","id":"6bd176c3-3bd5-4364-a3f1-5ec789dce9e2","meta":{"profile":["http://hl7.org/fhir/us/qicore/StructureDefinition/qicore-coverage"]},"status":"active","beneficiary":{"reference":"Patient/5580cb1d-0ac8-459b-9460-85ad6fe489dc"},"payor":[{"reference":"Organization/4b5a882f-1f43-485c-85c6-f5ad2337d5b1"}]},"request":{"method":"PUT","url":"Coverage/6bd176c3-3bd5-4364-a3f1-5ec789dce9e2"}},{"fullUrl":"https://madie.cms.gov/Organization/123456","resource":{"resourceType":"Organization","id":"4b5a882f-1f43-485c-85c6-f5ad2337d5b1","meta":{"profile":["http://hl7.org/fhir/us/qicore/StructureDefinition/qicore-organization"]},"identifier":[{"use":"temp","system":"urn:oid:2.16.840.1.113883.4.4","value":"21-3259825"}],"active":true,"type":[{"coding":[{"system":"http://terminology.hl7.org/CodeSystem/organization-type","code":"pay","display":"Payer"}]}],"name":"Blue Cross Blue Shield of Texas","telecom":[{"system":"phone","value":"(+1) 972-766-6900"}],"address":[{"use":"billing","type":"postal","line":["P.O. Box 660044"],"city":"Dallas","state":"TX","postalCode":"75266-0044","country":"USA"}]},"request":{"method":"PUT","url":"Organization/4b5a882f-1f43-485c-85c6-f5ad2337d5b1"}},{"fullUrl":"https://madie.cms.gov/Practitioner/practitioner-123456","resource":{"resourceType":"Practitioner","id":"60dd5c37-383e-486f-b703-068e74d6c6ba","identifier":[{"system":"http://hl7.org/fhir/sid/us-npi","value":"123456"}],"name":[{"family":"Evil","prefix":["Dr"]}]},"request":{"method":"PUT","url":"Practitioner/60dd5c37-383e-486f-b703-068e74d6c6ba"}},{"fullUrl":"https://madie.cms.gov/MeasureReport/01056795-7ade-443e-b539-a9a5d2a30abb","resource":{"resourceType":"MeasureReport","id":"01056795-7ade-443e-b539-a9a5d2a30abb","meta":{"profile":["http://hl7.org/fhir/us/cqfmeasures/StructureDefinition/test-case-cqfm"]},"contained":[{"resourceType":"Parameters","id":"4b9b3e57-7617-48f7-b2fb-c459dcff7fe5-parameters","parameter":[{"name":"subject","valueString":"5580cb1d-0ac8-459b-9460-85ad6fe489dc"}]}],"extension":[{"url":"http://hl7.org/fhir/us/cqfmeasures/StructureDefinition/cqfm-inputParameters","valueReference":{"reference":"#4b9b3e57-7617-48f7-b2fb-c459dcff7fe5-parameters"}},{"url":"http://hl7.org/fhir/us/cqfmeasures/StructureDefinition/cqfm-testCaseDescription","valueMarkdown":"\"Fail IPP, Non-delivery procedure (hip replacement)\n DEN, NUM. Parity result 0 (auth at 42 weeks) EGA 40 weeks; \"\n"}],"modifierExtension":[{"url":"http://hl7.org/fhir/us/cqfmeasures/StructureDefinition/cqfm-isTestCase","valueBoolean":true}],"status":"complete","type":"individual","measure":"https://madie.cms.gov/Measure/CesareanBirthFHIR","period":{"start":"2025-01-01","end":"2025-12-31"},"group":[{"population":[{"code":{"coding":[{"system":"http://terminology.hl7.org/CodeSystem/measure-population","code":"initial-population","display":"Initial Population"}]},"count":0},{"code":{"coding":[{"system":"http://terminology.hl7.org/CodeSystem/measure-population","code":"denominator","display":"Denominator"}]},"count":0},{"code":{"coding":[{"system":"http://terminology.hl7.org/CodeSystem/measure-population","code":"denominator-exclusion","display":"Denominator Exclusion"}]},"count":0},{"code":{"coding":[{"system":"http://terminology.hl7.org/CodeSystem/measure-population","code":"numerator","display":"Numerator"}]},"count":0}]}]},"request":{"method":"PUT","url":"MeasureReport/01056795-7ade-443e-b539-a9a5d2a30abb"}}]}