{"resourceType":"Bundle","id":"tests-6b0bd714-e832-4b86-85ba-7a860e8cc4f0-bundle","type":"transaction","entry":[{"fullUrl":"https://madie.cms.gov/Patient/6b0bd714-e832-4b86-85ba-7a860e8cc4f0","resource":{"resourceType":"Patient","id":"6b0bd714-e832-4b86-85ba-7a860e8cc4f0","meta":{"profile":["http://hl7.org/fhir/us/qicore/StructureDefinition/qicore-patient"]},"text":{"status":"generated","div":"<div xmlns=\"http://www.w3.org/1999/xhtml\"><div class=\"hapiHeaderText\">AssessGResultIsNull <b>DENFAIL </b></div><table class=\"hapiPropertyTable\"><tbody><tr><td>Identifier</td><td>1708e167118eb3c6ba503e3f4dd6b33e8139c84285201cfc9988c13f48ee7f27</td></tr><tr><td>Date of birth</td><td><span>14 February 1985</span></td></tr></tbody></table></div>"},"extension":[{"url":"http://hl7.org/fhir/us/core/StructureDefinition/us-core-race","extension":[{"url":"ombCategory","valueCoding":{"system":"urn:oid:2.16.840.1.113883.6.238","code":"1002-5","display":"American Indian or Alaska Native","userSelected":true}},{"url":"text","valueString":"American Indian or Alaska Native"}]},{"url":"http://hl7.org/fhir/us/core/StructureDefinition/us-core-ethnicity","extension":[{"url":"ombCategory","valueCoding":{"system":"urn:oid:2.16.840.1.113883.6.238","code":"2135-2","display":"Hispanic or Latino","userSelected":true}},{"url":"text","valueString":"Hispanic or Latino"}]}],"identifier":[{"type":{"coding":[{"system":"http://terminology.hl7.org/CodeSystem/v2-0203","code":"MR"}]},"system":"https://bonnie-fhir.healthit.gov/","value":"63487c300968f801225401cb"}],"active":true,"name":[{"use":"usual","family":"DENFail","given":["AssessGResultIsNull"]}],"gender":"female","birthDate":"1997-02-14"},"request":{"method":"PUT","url":"Patient/6b0bd714-e832-4b86-85ba-7a860e8cc4f0"}},{"fullUrl":"https://madie.cms.gov/Observation/5d014eb2b848460872380587","resource":{"resourceType":"Observation","id":"0f18f4e0-f74c-4c1f-9c25-9eaca11b11e7","meta":{"profile":["http://hl7.org/fhir/us/qicore/StructureDefinition/qicore-observation"]},"status":"final","category":[{"coding":[{"system":"http://terminology.hl7.org/CodeSystem/observation-category","code":"exam","display":"exam","userSelected":true}]}],"code":{"coding":[{"system":"http://loinc.org","code":"11884-4"}]},"subject":{"reference":"Patient/6b0bd714-e832-4b86-85ba-7a860e8cc4f0"},"effectiveDateTime":"2025-06-08T09:15:00.000+00:00","valueQuantity":{"value":38.0,"system":"http://unitsofmeasure.org","code":"weeks"}},"request":{"method":"PUT","url":"Observation/0f18f4e0-f74c-4c1f-9c25-9eaca11b11e7"}},{"fullUrl":"https://madie.cms.gov/Observation/5d014eb2b848460872380589","resource":{"resourceType":"Observation","id":"4ab7e496-c415-4bf4-b206-a1145439b97e","meta":{"profile":["http://hl7.org/fhir/us/qicore/StructureDefinition/qicore-observation"]},"status":"final","category":[{"coding":[{"system":"http://terminology.hl7.org/CodeSystem/observation-category","code":"exam","display":"exam","userSelected":true}]}],"code":{"coding":[{"system":"http://loinc.org","code":"11996-6"}]},"subject":{"reference":"Patient/6b0bd714-e832-4b86-85ba-7a860e8cc4f0"},"effectiveDateTime":"2025-06-08T19:00:00.000+00:00"},"request":{"method":"PUT","url":"Observation/4ab7e496-c415-4bf4-b206-a1145439b97e"}},{"fullUrl":"https://madie.cms.gov/Observation/5e694e307ffec70000320468","resource":{"resourceType":"Observation","id":"d38da151-6c96-455f-94e8-9316705dae3b","meta":{"profile":["http://hl7.org/fhir/us/qicore/StructureDefinition/qicore-observation"]},"status":"final","category":[{"coding":[{"system":"http://terminology.hl7.org/CodeSystem/observation-category","code":"exam","display":"exam","userSelected":true}]}],"code":{"coding":[{"system":"http://loinc.org","code":"93857-1"}]},"subject":{"reference":"Patient/6b0bd714-e832-4b86-85ba-7a860e8cc4f0"},"effectiveDateTime":"2025-06-08T20:00:00.000+00:00","valueDateTime":"2025-06-08T20:00:00+00:00"},"request":{"method":"PUT","url":"Observation/d38da151-6c96-455f-94e8-9316705dae3b"}},{"fullUrl":"https://madie.cms.gov/Encounter/5d014eb2b848460872380585","resource":{"resourceType":"Encounter","id":"e324c4d6-4ee8-43b6-86ff-9b4a5b1db210","meta":{"profile":["http://hl7.org/fhir/us/qicore/StructureDefinition/qicore-encounter"]},"status":"finished","class":{"system":"http://terminology.hl7.org/CodeSystem/v3-ActCode","code":"IMP","display":"inpatient encounter"},"type":[{"coding":[{"system":"http://snomed.info/sct","code":"183452005"}]}],"subject":{"reference":"Patient/6b0bd714-e832-4b86-85ba-7a860e8cc4f0"},"period":{"start":"2025-06-08T08:00:00.000Z","end":"2025-06-10T08:15:00.000Z"},"length":{"value":2.0,"unit":"days"},"diagnosis":[{"condition":{"reference":"Condition/delivery-of-singleton-f83c"},"use":{"coding":[{"system":"http://snomed.info/sct","code":"169826009","display":"Delivery of Singleton"}]}},{"condition":{"reference":"Condition/delivery-of-singleton-4b06"}}]},"request":{"method":"PUT","url":"Encounter/e324c4d6-4ee8-43b6-86ff-9b4a5b1db210"}},{"fullUrl":"https://madie.cms.gov/Procedure/5d014eb2b848460872380586","resource":{"resourceType":"Procedure","id":"a137bea0-f7cb-465f-9f7a-3a8ef7e23646","meta":{"profile":["http://hl7.org/fhir/us/qicore/StructureDefinition/qicore-procedure"]},"extension":[{"url":"http://hl7.org/fhir/us/qicore/StructureDefinition/qicore-recorded","valueDateTime":"2013-04-05T09:35:00-04:00"}],"status":"completed","code":{"coding":[{"system":"http://www.cms.gov/Medicare/Coding/ICD10","code":"10D07Z3"},{"system":"http://www.icd10data.com/icd10pcs","code":"10D07Z3","userSelected":true}]},"subject":{"reference":"Patient/6b0bd714-e832-4b86-85ba-7a860e8cc4f0"},"performedPeriod":{"start":"2025-06-08T08:10:00.000Z","end":"2025-06-08T09:14:00.000Z"}},"request":{"method":"PUT","url":"Procedure/a137bea0-f7cb-465f-9f7a-3a8ef7e23646"}},{"fullUrl":"https://madie.cms.gov/Condition/delivery-of-singleton-4b06","resource":{"resourceType":"Condition","id":"18ee3bf1-7df6-452e-8697-5d8bfade9137","meta":{"profile":["http://hl7.org/fhir/us/qicore/StructureDefinition/qicore-condition"]},"category":[{"coding":[{"system":"http://terminology.hl7.org/CodeSystem/condition-category","code":"encounter-diagnosis","display":"Encounter Diagnosis"}]}],"code":{"coding":[{"system":"http://snomed.info/sct","version":"2022-09","code":"169826009","display":"Single live birth (finding)","userSelected":true}]},"subject":{"reference":"Patient/6b0bd714-e832-4b86-85ba-7a860e8cc4f0"},"recordedDate":"2025-10-21T08:00:00.000+00:00"},"request":{"method":"PUT","url":"Condition/18ee3bf1-7df6-452e-8697-5d8bfade9137"}},{"fullUrl":"https://madie.cms.gov/Coverage/1","resource":{"resourceType":"Coverage","id":"e80ff007-1542-4978-9e2f-9165838e58a9","meta":{"profile":["http://hl7.org/fhir/us/qicore/StructureDefinition/qicore-coverage"]},"status":"active","beneficiary":{"reference":"Patient/6b0bd714-e832-4b86-85ba-7a860e8cc4f0"},"payor":[{"reference":"Organization/42846cc3-1db0-4bf7-b9ff-8b81fa6e835d"}]},"request":{"method":"PUT","url":"Coverage/e80ff007-1542-4978-9e2f-9165838e58a9"}},{"fullUrl":"https://madie.cms.gov/Organization/123456","resource":{"resourceType":"Organization","id":"42846cc3-1db0-4bf7-b9ff-8b81fa6e835d","meta":{"profile":["http://hl7.org/fhir/us/qicore/StructureDefinition/qicore-organization"]},"identifier":[{"use":"temp","system":"urn:oid:2.16.840.1.113883.4.4","value":"21-3259825"}],"active":true,"type":[{"coding":[{"system":"http://terminology.hl7.org/CodeSystem/organization-type","code":"pay","display":"Payer"}]}],"name":"Blue Cross Blue Shield of Texas","telecom":[{"system":"phone","value":"(+1) 972-766-6900"}],"address":[{"use":"billing","type":"postal","line":["P.O. Box 660044"],"city":"Dallas","state":"TX","postalCode":"75266-0044","country":"USA"}]},"request":{"method":"PUT","url":"Organization/42846cc3-1db0-4bf7-b9ff-8b81fa6e835d"}},{"fullUrl":"https://madie.cms.gov/Practitioner/practitioner-123456","resource":{"resourceType":"Practitioner","id":"e2051021-b165-4b2f-80be-251a9fbc805f","identifier":[{"system":"http://hl7.org/fhir/sid/us-npi","value":"123456"}],"name":[{"family":"Evil","prefix":["Dr"]}]},"request":{"method":"PUT","url":"Practitioner/e2051021-b165-4b2f-80be-251a9fbc805f"}},{"fullUrl":"https://madie.cms.gov/MeasureReport/ddf374ea-31ee-43b6-9fb1-cd6effd60025","resource":{"resourceType":"MeasureReport","id":"ddf374ea-31ee-43b6-9fb1-cd6effd60025","meta":{"profile":["http://hl7.org/fhir/us/cqfmeasures/StructureDefinition/test-case-cqfm"]},"contained":[{"resourceType":"Parameters","id":"c2225cc3-fac2-4bce-b1a7-87e8f35a4476-parameters","parameter":[{"name":"subject","valueString":"6b0bd714-e832-4b86-85ba-7a860e8cc4f0"}]}],"extension":[{"url":"http://hl7.org/fhir/us/cqfmeasures/StructureDefinition/cqfm-inputParameters","valueReference":{"reference":"#c2225cc3-fac2-4bce-b1a7-87e8f35a4476-parameters"}},{"url":"http://hl7.org/fhir/us/cqfmeasures/StructureDefinition/cqfm-testCaseDescription","valueMarkdown":" Pt is 27 years of age,  encounter dx delivery of singleton, gravida rel date/time 42 weeks or less before time of delivery.  This fails because  gravida Result is Null\n"}],"modifierExtension":[{"url":"http://hl7.org/fhir/us/cqfmeasures/StructureDefinition/cqfm-isTestCase","valueBoolean":true}],"status":"complete","type":"individual","measure":"https://madie.cms.gov/Measure/CesareanBirthFHIR","period":{"start":"2025-01-01","end":"2025-12-31"},"group":[{"population":[{"code":{"coding":[{"system":"http://terminology.hl7.org/CodeSystem/measure-population","code":"initial-population","display":"Initial Population"}]},"count":1},{"code":{"coding":[{"system":"http://terminology.hl7.org/CodeSystem/measure-population","code":"denominator","display":"Denominator"}]},"count":0},{"code":{"coding":[{"system":"http://terminology.hl7.org/CodeSystem/measure-population","code":"denominator-exclusion","display":"Denominator Exclusion"}]},"count":0},{"code":{"coding":[{"system":"http://terminology.hl7.org/CodeSystem/measure-population","code":"numerator","display":"Numerator"}]},"count":0}]}]},"request":{"method":"PUT","url":"MeasureReport/ddf374ea-31ee-43b6-9fb1-cd6effd60025"}}]}