{"resourceType":"Bundle","id":"tests-9453e96c-c06a-469b-ab8f-e2cc32dc684c-bundle","type":"transaction","entry":[{"fullUrl":"https://madie.cms.gov/Patient/9453e96c-c06a-469b-ab8f-e2cc32dc684c","resource":{"resourceType":"Patient","id":"9453e96c-c06a-469b-ab8f-e2cc32dc684c","meta":{"profile":["http://hl7.org/fhir/us/qicore/StructureDefinition/qicore-patient"]},"text":{"status":"generated","div":"<div xmlns=\"http://www.w3.org/1999/xhtml\"><div class=\"hapiHeaderText\">AssessPreTerm0RelDtTime1HourAfterDeliv <b>DENFAIL </b></div><table class=\"hapiPropertyTable\"><tbody><tr><td>Identifier</td><td>84b8753708c54db876aad59c3b5dceaad455214447efdaf1a626473420ae0ee9</td></tr><tr><td>Date of birth</td><td><span>14 February 1985</span></td></tr></tbody></table></div>"},"extension":[{"url":"http://hl7.org/fhir/us/core/StructureDefinition/us-core-race","extension":[{"url":"ombCategory","valueCoding":{"system":"urn:oid:2.16.840.1.113883.6.238","code":"1002-5","display":"American Indian or Alaska Native","userSelected":true}},{"url":"text","valueString":"American Indian or Alaska Native"}]},{"url":"http://hl7.org/fhir/us/core/StructureDefinition/us-core-ethnicity","extension":[{"url":"ombCategory","valueCoding":{"system":"urn:oid:2.16.840.1.113883.6.238","code":"2135-2","display":"Hispanic or Latino","userSelected":true}},{"url":"text","valueString":"Hispanic or Latino"}]}],"identifier":[{"type":{"coding":[{"system":"http://terminology.hl7.org/CodeSystem/v2-0203","code":"MR"}]},"system":"https://bonnie-fhir.healthit.gov/","value":"63487c2e0968f80122540185"}],"active":true,"name":[{"use":"usual","family":"DENFail","given":["AssessPreTerm0RelDtTime1HourAfterDeliv"]}],"gender":"female","birthDate":"1997-02-14"},"request":{"method":"PUT","url":"Patient/9453e96c-c06a-469b-ab8f-e2cc32dc684c"}},{"fullUrl":"https://madie.cms.gov/Observation/5d014eb1b8484608723804b4","resource":{"resourceType":"Observation","id":"ef869ac5-27b7-4026-adbc-798f93049304","meta":{"profile":["http://hl7.org/fhir/us/qicore/StructureDefinition/qicore-observation"]},"status":"final","category":[{"coding":[{"system":"http://terminology.hl7.org/CodeSystem/observation-category","code":"exam","display":"exam","userSelected":true}]}],"code":{"coding":[{"system":"http://loinc.org","code":"11639-2"}]},"subject":{"reference":"Patient/9453e96c-c06a-469b-ab8f-e2cc32dc684c"},"effectiveDateTime":"2024-09-19T09:00:00.000+00:00","valueInteger":0},"request":{"method":"PUT","url":"Observation/ef869ac5-27b7-4026-adbc-798f93049304"}},{"fullUrl":"https://madie.cms.gov/Observation/5d014eb1b8484608723804b7","resource":{"resourceType":"Observation","id":"dbc92a98-8254-4e9e-8718-b3c4d7622337","meta":{"profile":["http://hl7.org/fhir/us/qicore/StructureDefinition/qicore-observation"]},"status":"final","category":[{"coding":[{"system":"http://terminology.hl7.org/CodeSystem/observation-category","code":"exam","display":"exam","userSelected":true}]}],"code":{"coding":[{"system":"http://loinc.org","code":"11884-4"}]},"subject":{"reference":"Patient/9453e96c-c06a-469b-ab8f-e2cc32dc684c"},"effectiveDateTime":"2025-06-08T20:00:00.000+00:00","valueQuantity":{"value":37.0,"system":"http://unitsofmeasure.org","code":"weeks"}},"request":{"method":"PUT","url":"Observation/dbc92a98-8254-4e9e-8718-b3c4d7622337"}},{"fullUrl":"https://madie.cms.gov/Observation/5d014eb1b8484608723804b9","resource":{"resourceType":"Observation","id":"73205d91-bfc8-4d20-ad8b-514c2d1ac2a7","meta":{"profile":["http://hl7.org/fhir/us/qicore/StructureDefinition/qicore-observation"]},"status":"final","category":[{"coding":[{"system":"http://terminology.hl7.org/CodeSystem/observation-category","code":"exam","display":"exam","userSelected":true}]}],"code":{"coding":[{"system":"http://loinc.org","code":"11637-6"}]},"subject":{"reference":"Patient/9453e96c-c06a-469b-ab8f-e2cc32dc684c"},"effectiveDateTime":"2025-06-08T21:00:00.000+00:00","valueInteger":0},"request":{"method":"PUT","url":"Observation/73205d91-bfc8-4d20-ad8b-514c2d1ac2a7"}},{"fullUrl":"https://madie.cms.gov/Observation/5e696ab07ffec70000321dbb","resource":{"resourceType":"Observation","id":"74f262e2-6572-4bd2-8aec-bebb7f0a78a3","meta":{"profile":["http://hl7.org/fhir/us/qicore/StructureDefinition/qicore-observation"]},"status":"final","category":[{"coding":[{"system":"http://terminology.hl7.org/CodeSystem/observation-category","code":"exam","display":"exam","userSelected":true}]}],"code":{"coding":[{"system":"http://loinc.org","code":"93857-1"}]},"subject":{"reference":"Patient/9453e96c-c06a-469b-ab8f-e2cc32dc684c"},"effectiveDateTime":"2025-06-08T20:00:00.000+00:00","valueDateTime":"2025-06-08T20:00:00+00:00"},"request":{"method":"PUT","url":"Observation/74f262e2-6572-4bd2-8aec-bebb7f0a78a3"}},{"fullUrl":"https://madie.cms.gov/Encounter/5d014eb1b8484608723804b2","resource":{"resourceType":"Encounter","id":"0779e00b-79db-4d4f-b300-70a3f276e17c","meta":{"profile":["http://hl7.org/fhir/us/qicore/StructureDefinition/qicore-encounter"]},"status":"finished","class":{"system":"http://terminology.hl7.org/CodeSystem/v3-ActCode","code":"IMP","display":"inpatient encounter"},"type":[{"coding":[{"system":"http://snomed.info/sct","code":"8715000"}]}],"subject":{"reference":"Patient/9453e96c-c06a-469b-ab8f-e2cc32dc684c"},"period":{"start":"2025-06-08T08:00:00.000Z","end":"2025-06-10T08:15:00.000Z"},"length":{"value":2.0,"unit":"days"},"diagnosis":[{"condition":{"reference":"Condition/delivery-of-singleton-f83c"},"use":{"coding":[{"system":"http://snomed.info/sct","code":"169826009","display":"Delivery of Singleton"}]}},{"condition":{"reference":"Condition/delivery-of-singleton-4b11"}}]},"request":{"method":"PUT","url":"Encounter/0779e00b-79db-4d4f-b300-70a3f276e17c"}},{"fullUrl":"https://madie.cms.gov/Procedure/5d014eb1b8484608723804b3","resource":{"resourceType":"Procedure","id":"3007803d-2a2c-4fb6-8107-0fc076ea0ee0","meta":{"profile":["http://hl7.org/fhir/us/qicore/StructureDefinition/qicore-procedure"]},"extension":[{"url":"http://hl7.org/fhir/us/qicore/StructureDefinition/qicore-recorded","valueDateTime":"2013-04-05T09:35:00-04:00"}],"status":"completed","code":{"coding":[{"system":"http://www.cms.gov/Medicare/Coding/ICD10","code":"10D00Z0"},{"system":"http://snomed.info/sct","code":"4504004"},{"system":"http://www.icd10data.com/icd10pcs","code":"10D00Z0","userSelected":true}]},"subject":{"reference":"Patient/9453e96c-c06a-469b-ab8f-e2cc32dc684c"},"performedPeriod":{"start":"2025-06-08T20:00:00.000Z","end":"2025-06-08T20:15:00.000Z"}},"request":{"method":"PUT","url":"Procedure/3007803d-2a2c-4fb6-8107-0fc076ea0ee0"}},{"fullUrl":"https://madie.cms.gov/Condition/delivery-of-singleton-4b11","resource":{"resourceType":"Condition","id":"1b4e9059-25a8-4d33-accb-685f4db68f27","meta":{"profile":["http://hl7.org/fhir/us/qicore/StructureDefinition/qicore-condition"]},"category":[{"coding":[{"system":"http://terminology.hl7.org/CodeSystem/condition-category","code":"encounter-diagnosis","display":"Encounter Diagnosis"}]}],"code":{"coding":[{"system":"http://snomed.info/sct","version":"2022-09","code":"169826009","display":"Single live birth (finding)","userSelected":true}]},"subject":{"reference":"Patient/9453e96c-c06a-469b-ab8f-e2cc32dc684c"},"recordedDate":"2025-10-21T08:00:00.000+00:00"},"request":{"method":"PUT","url":"Condition/1b4e9059-25a8-4d33-accb-685f4db68f27"}},{"fullUrl":"https://madie.cms.gov/Coverage/1","resource":{"resourceType":"Coverage","id":"c5eee561-1433-45a7-9d72-4d4827795e39","meta":{"profile":["http://hl7.org/fhir/us/qicore/StructureDefinition/qicore-coverage"]},"status":"active","beneficiary":{"reference":"Patient/9453e96c-c06a-469b-ab8f-e2cc32dc684c"},"payor":[{"reference":"Organization/80e3e0d1-b2aa-43a6-b1d2-00bfa3164a0f"}]},"request":{"method":"PUT","url":"Coverage/c5eee561-1433-45a7-9d72-4d4827795e39"}},{"fullUrl":"https://madie.cms.gov/Organization/123456","resource":{"resourceType":"Organization","id":"80e3e0d1-b2aa-43a6-b1d2-00bfa3164a0f","meta":{"profile":["http://hl7.org/fhir/us/qicore/StructureDefinition/qicore-organization"]},"identifier":[{"use":"temp","system":"urn:oid:2.16.840.1.113883.4.4","value":"21-3259825"}],"active":true,"type":[{"coding":[{"system":"http://terminology.hl7.org/CodeSystem/organization-type","code":"pay","display":"Payer"}]}],"name":"Blue Cross Blue Shield of Texas","telecom":[{"system":"phone","value":"(+1) 972-766-6900"}],"address":[{"use":"billing","type":"postal","line":["P.O. Box 660044"],"city":"Dallas","state":"TX","postalCode":"75266-0044","country":"USA"}]},"request":{"method":"PUT","url":"Organization/80e3e0d1-b2aa-43a6-b1d2-00bfa3164a0f"}},{"fullUrl":"https://madie.cms.gov/Practitioner/practitioner-123456","resource":{"resourceType":"Practitioner","id":"7ec89a4e-c915-4f61-89c5-c0dafdbc6aeb","identifier":[{"system":"http://hl7.org/fhir/sid/us-npi","value":"123456"}],"name":[{"family":"Evil","prefix":["Dr"]}]},"request":{"method":"PUT","url":"Practitioner/7ec89a4e-c915-4f61-89c5-c0dafdbc6aeb"}},{"fullUrl":"https://madie.cms.gov/MeasureReport/6cfa72bd-50c8-404e-84a4-82e959f4b093","resource":{"resourceType":"MeasureReport","id":"6cfa72bd-50c8-404e-84a4-82e959f4b093","meta":{"profile":["http://hl7.org/fhir/us/cqfmeasures/StructureDefinition/test-case-cqfm"]},"contained":[{"resourceType":"Parameters","id":"80adb902-3508-4c14-a25d-b569312b067e-parameters","parameter":[{"name":"subject","valueString":"9453e96c-c06a-469b-ab8f-e2cc32dc684c"}]}],"extension":[{"url":"http://hl7.org/fhir/us/cqfmeasures/StructureDefinition/cqfm-inputParameters","valueReference":{"reference":"#80adb902-3508-4c14-a25d-b569312b067e-parameters"}},{"url":"http://hl7.org/fhir/us/cqfmeasures/StructureDefinition/cqfm-testCaseDescription","valueMarkdown":"\"Term Newborn=0,  <42wks B4 Asse delivery.\nPreterm=0, rel date/time 1 hour after delivery Datetime.\nwith note of timing logic needed to constrain the rel date/time time to no later than the time of Asse delivery time, DENOM will Fail\n\"\n"}],"modifierExtension":[{"url":"http://hl7.org/fhir/us/cqfmeasures/StructureDefinition/cqfm-isTestCase","valueBoolean":true}],"status":"complete","type":"individual","measure":"https://madie.cms.gov/Measure/CesareanBirthFHIR","period":{"start":"2025-01-01","end":"2025-12-31"},"group":[{"population":[{"code":{"coding":[{"system":"http://terminology.hl7.org/CodeSystem/measure-population","code":"initial-population","display":"Initial Population"}]},"count":1},{"code":{"coding":[{"system":"http://terminology.hl7.org/CodeSystem/measure-population","code":"denominator","display":"Denominator"}]},"count":0},{"code":{"coding":[{"system":"http://terminology.hl7.org/CodeSystem/measure-population","code":"denominator-exclusion","display":"Denominator Exclusion"}]},"count":0},{"code":{"coding":[{"system":"http://terminology.hl7.org/CodeSystem/measure-population","code":"numerator","display":"Numerator"}]},"count":0}]}]},"request":{"method":"PUT","url":"MeasureReport/6cfa72bd-50c8-404e-84a4-82e959f4b093"}}]}