{"resourceType":"Bundle","id":"tests-eb0241e2-ec13-4ce0-8221-4de320f5a3a1-bundle","type":"transaction","entry":[{"fullUrl":"Patient/eb0241e2-ec13-4ce0-8221-4de320f5a3a1","resource":{"resourceType":"Patient","id":"eb0241e2-ec13-4ce0-8221-4de320f5a3a1","meta":{"profile":["http://hl7.org/fhir/us/qicore/StructureDefinition/qicore-patient"]},"text":{"status":"generated","div":"<div xmlns=\"http://www.w3.org/1999/xhtml\"><div class=\"hapiHeaderText\">AgeEQ65 <b>IPFAIL </b></div><table class=\"hapiPropertyTable\"><tbody><tr><td>Identifier</td><td>069a58fe05a5273ab198ba9d4cab60df263b71300a48a650d6186814d5cabb6c</td></tr><tr><td>Date of birth</td><td><span>01 January 1947</span></td></tr></tbody></table></div>"},"extension":[{"url":"http://hl7.org/fhir/us/core/StructureDefinition/us-core-race","extension":[{"url":"ombCategory","valueCoding":{"system":"urn:oid:2.16.840.1.113883.6.238","code":"1002-5","display":"American Indian or Alaska Native","userSelected":true}},{"url":"text","valueString":"American Indian or Alaska Native"}]},{"url":"http://hl7.org/fhir/us/core/StructureDefinition/us-core-ethnicity","extension":[{"url":"ombCategory","valueCoding":{"system":"urn:oid:2.16.840.1.113883.6.238","code":"2135-2","display":"Hispanic or Latino","userSelected":true}},{"url":"text","valueString":"Hispanic or Latino"}]}],"identifier":[{"type":{"coding":[{"system":"http://terminology.hl7.org/CodeSystem/v2-0203","code":"MR"}]},"system":"https://bonnie-fhir.healthit.gov/","value":"63487c2e0968f8012254017e"}],"active":true,"name":[{"use":"usual","family":"IPFail","given":["AgeEQ65"]}],"gender":"female","birthDate":"1947-06-08"},"request":{"method":"PUT","url":"Patient/eb0241e2-ec13-4ce0-8221-4de320f5a3a1"}},{"fullUrl":"Encounter/5d014eb1b84846087238046d","resource":{"resourceType":"Encounter","id":"5d014eb1b84846087238046d","meta":{"profile":["http://hl7.org/fhir/us/qicore/StructureDefinition/qicore-encounter"]},"status":"finished","class":{"system":"http://terminology.hl7.org/CodeSystem/v3-ActCode","code":"IMP","display":"inpatient encounter"},"type":[{"coding":[{"system":"http://snomed.info/sct","code":"8715000"}]}],"subject":{"reference":"Patient/eb0241e2-ec13-4ce0-8221-4de320f5a3a1"},"period":{"start":"2025-06-08T08:00:00.000Z","end":"2025-06-09T08:15:00.000Z"},"diagnosis":[{"condition":{"reference":"Condition/Condition-2"},"use":{"coding":[{"system":"http://snomed.info/sct","code":"169826009","display":"Delivery of Singleton"}]}}]},"request":{"method":"PUT","url":"Encounter/5d014eb1b84846087238046d"}},{"fullUrl":"Procedure/5d014eb1b84846087238046e","resource":{"resourceType":"Procedure","id":"5d014eb1b84846087238046e","meta":{"profile":["http://hl7.org/fhir/us/qicore/StructureDefinition/qicore-procedure"]},"extension":[{"url":"http://hl7.org/fhir/us/qicore/StructureDefinition/qicore-recorded","valueDateTime":"2013-04-05T09:35:00-04:00"}],"status":"completed","code":{"coding":[{"system":"http://www.cms.gov/Medicare/Coding/ICD10","code":"10D00Z0"},{"system":"http://www.icd10data.com/icd10pcs","code":"10D00Z0","userSelected":true},{"system":"http://snomed.info/sct","code":"11466000"}]},"subject":{"reference":"Patient/eb0241e2-ec13-4ce0-8221-4de320f5a3a1"},"performedPeriod":{"start":"2025-06-08T08:00:00.000Z","end":"2025-06-09T08:15:00.000Z"}},"request":{"method":"PUT","url":"Procedure/5d014eb1b84846087238046e"}},{"fullUrl":"Coverage/Coverage-1","resource":{"resourceType":"Coverage","id":"Coverage-1","meta":{"profile":["http://hl7.org/fhir/us/qicore/StructureDefinition/qicore-coverage"]},"status":"active","beneficiary":{"reference":"Patient/eb0241e2-ec13-4ce0-8221-4de320f5a3a1"},"payor":[{"reference":"Organization/Org-123456"}]},"request":{"method":"PUT","url":"Coverage/Coverage-1"}},{"fullUrl":"Organization/Org-123456","resource":{"resourceType":"Organization","id":"Org-123456","meta":{"profile":["http://hl7.org/fhir/us/qicore/StructureDefinition/qicore-organization"]},"identifier":[{"use":"temp","system":"urn:oid:2.16.840.1.113883.4.4","value":"21-3259825"}],"active":true,"type":[{"coding":[{"system":"http://terminology.hl7.org/CodeSystem/organization-type","code":"pay","display":"Payer"}]}],"name":"Blue Cross Blue Shield of Texas","telecom":[{"system":"phone","value":"(+1) 972-766-6900"}],"address":[{"use":"billing","type":"postal","line":["P.O. Box 660044"],"city":"Dallas","state":"TX","postalCode":"75266-0044","country":"USA"}]},"request":{"method":"PUT","url":"Organization/Org-123456"}},{"fullUrl":"Practitioner/practitioner-123456","resource":{"resourceType":"Practitioner","id":"practitioner-123456","identifier":[{"system":"http://hl7.org/fhir/sid/us-npi","value":"123456"}],"name":[{"family":"Evil","prefix":["Dr"]}]},"request":{"method":"PUT","url":"Practitioner/practitioner-123456"}},{"fullUrl":"MeasureReport/f66b36b1-28c2-472e-a234-c19781d13e03","resource":{"resourceType":"MeasureReport","id":"f66b36b1-28c2-472e-a234-c19781d13e03","meta":{"profile":["http://hl7.org/fhir/us/cqfmeasures/StructureDefinition/test-case-cqfm"]},"contained":[{"resourceType":"Parameters","id":"d44a1f20-85c6-4815-85f4-ee3aabfacbef-parameters","parameter":[{"name":"subject","valueString":"eb0241e2-ec13-4ce0-8221-4de320f5a3a1"}]}],"extension":[{"url":"http://hl7.org/fhir/us/cqfmeasures/StructureDefinition/cqfm-inputParameters","valueReference":{"reference":"#d44a1f20-85c6-4815-85f4-ee3aabfacbef-parameters"}},{"url":"http://hl7.org/fhir/us/cqfmeasures/StructureDefinition/cqfm-testCaseDescription","valueMarkdown":"Pt =65 years of age .  This  is an intentional fail \n"}],"modifierExtension":[{"url":"http://hl7.org/fhir/us/cqfmeasures/StructureDefinition/cqfm-isTestCase","valueBoolean":true}],"status":"complete","type":"individual","measure":"Measure/CesareanBirthFHIR","period":{"start":"2025-01-01","end":"2025-12-31"},"group":[{"population":[{"code":{"coding":[{"system":"http://terminology.hl7.org/CodeSystem/measure-population","code":"initial-population","display":"Initial Population"}]},"count":0},{"code":{"coding":[{"system":"http://terminology.hl7.org/CodeSystem/measure-population","code":"denominator","display":"Denominator"}]},"count":0},{"code":{"coding":[{"system":"http://terminology.hl7.org/CodeSystem/measure-population","code":"denominator-exclusion","display":"Denominator Exclusion"}]},"count":0},{"code":{"coding":[{"system":"http://terminology.hl7.org/CodeSystem/measure-population","code":"numerator","display":"Numerator"}]},"count":0}]}],"evaluatedResource":[{"reference":"Patient/eb0241e2-ec13-4ce0-8221-4de320f5a3a1"},{"reference":"Encounter/5d014eb1b84846087238046d"},{"reference":"Procedure/5d014eb1b84846087238046e"},{"reference":"Coverage/Coverage-1"},{"reference":"Organization/Org-123456"},{"reference":"Practitioner/practitioner-123456"}]},"request":{"method":"PUT","url":"MeasureReport/f66b36b1-28c2-472e-a234-c19781d13e03"}}]}