{"resourceType":"Bundle","id":"tests-85099d00-576e-495a-97de-b1cd5d4377cf-bundle","type":"transaction","entry":[{"fullUrl":"https://madie.cms.gov/Patient/85099d00-576e-495a-97de-b1cd5d4377cf","resource":{"resourceType":"Patient","id":"85099d00-576e-495a-97de-b1cd5d4377cf","meta":{"profile":["http://hl7.org/fhir/us/qicore/StructureDefinition/qicore-patient"]},"text":{"status":"generated","div":"<div xmlns=\"http://www.w3.org/1999/xhtml\"><div class=\"hapiHeaderText\">AssessP0RelDateTime42wk1MinB4TimeOfDelivTime <b>DENFAIL </b></div><table class=\"hapiPropertyTable\"><tbody><tr><td>Identifier</td><td>a4f89b063325e93d9c0619322ab83006b1a8a4bc33d4a91258dd77ce8e032520</td></tr><tr><td>Date of birth</td><td><span>14 February 1985</span></td></tr></tbody></table></div>"},"extension":[{"url":"http://hl7.org/fhir/us/core/StructureDefinition/us-core-race","extension":[{"url":"ombCategory","valueCoding":{"system":"urn:oid:2.16.840.1.113883.6.238","code":"1002-5","display":"American Indian or Alaska Native","userSelected":true}},{"url":"text","valueString":"American Indian or Alaska Native"}]},{"url":"http://hl7.org/fhir/us/core/StructureDefinition/us-core-ethnicity","extension":[{"url":"ombCategory","valueCoding":{"system":"urn:oid:2.16.840.1.113883.6.238","code":"2135-2","display":"Hispanic or Latino","userSelected":true}},{"url":"text","valueString":"Hispanic or Latino"}]}],"identifier":[{"type":{"coding":[{"system":"http://terminology.hl7.org/CodeSystem/v2-0203","code":"MR"}]},"system":"https://bonnie-fhir.healthit.gov/","value":"63487c2e0968f80122540166"}],"active":true,"name":[{"use":"usual","family":"DENFail","given":["AssessP0RelDateTime42wk1MinB4TimeOfDelivTime"]}],"gender":"female","birthDate":"1997-02-14"},"request":{"method":"PUT","url":"Patient/85099d00-576e-495a-97de-b1cd5d4377cf"}},{"fullUrl":"https://madie.cms.gov/Observation/5d014eb2b84846087238056a","resource":{"resourceType":"Observation","id":"f0651b5f-151e-4903-a40f-5e5a7fa41c21","meta":{"profile":["http://hl7.org/fhir/us/qicore/StructureDefinition/qicore-observation"]},"status":"final","category":[{"coding":[{"system":"http://terminology.hl7.org/CodeSystem/observation-category","code":"exam","display":"exam","userSelected":true}]}],"code":{"coding":[{"system":"http://loinc.org","code":"11977-6"}]},"subject":{"reference":"Patient/85099d00-576e-495a-97de-b1cd5d4377cf"},"effectiveDateTime":"2011-08-19T19:59:00.000+00:00","valueInteger":0},"request":{"method":"PUT","url":"Observation/f0651b5f-151e-4903-a40f-5e5a7fa41c21"}},{"fullUrl":"https://madie.cms.gov/Observation/5d014eb2b84846087238056d","resource":{"resourceType":"Observation","id":"55275e5d-fb33-4875-a407-e07a593b936f","meta":{"profile":["http://hl7.org/fhir/us/qicore/StructureDefinition/qicore-observation"]},"status":"final","category":[{"coding":[{"system":"http://terminology.hl7.org/CodeSystem/observation-category","code":"exam","display":"exam","userSelected":true}]}],"code":{"coding":[{"system":"http://loinc.org","code":"11884-4"}]},"subject":{"reference":"Patient/85099d00-576e-495a-97de-b1cd5d4377cf"},"effectiveDateTime":"2025-06-08T20:00:00.000+00:00","valueQuantity":{"value":37.0,"system":"http://unitsofmeasure.org","code":"weeks"}},"request":{"method":"PUT","url":"Observation/55275e5d-fb33-4875-a407-e07a593b936f"}},{"fullUrl":"https://madie.cms.gov/Observation/5e695e2d7ffec70000320dac","resource":{"resourceType":"Observation","id":"147cdd54-363d-4669-b4ba-301abf0e6ce7","meta":{"profile":["http://hl7.org/fhir/us/qicore/StructureDefinition/qicore-observation"]},"status":"final","category":[{"coding":[{"system":"http://terminology.hl7.org/CodeSystem/observation-category","code":"exam","display":"exam","userSelected":true}]}],"code":{"coding":[{"system":"http://loinc.org","code":"93857-1"}]},"subject":{"reference":"Patient/85099d00-576e-495a-97de-b1cd5d4377cf"},"effectiveDateTime":"2025-06-08T20:00:00.000+00:00","valueDateTime":"2025-06-08T20:00:00+00:00"},"request":{"method":"PUT","url":"Observation/147cdd54-363d-4669-b4ba-301abf0e6ce7"}},{"fullUrl":"https://madie.cms.gov/Encounter/5d014eb2b848460872380568","resource":{"resourceType":"Encounter","id":"a2ce3f4a-e8d5-4f34-aa25-431d0ee179e9","meta":{"profile":["http://hl7.org/fhir/us/qicore/StructureDefinition/qicore-encounter"]},"status":"finished","class":{"system":"http://terminology.hl7.org/CodeSystem/v3-ActCode","code":"IMP","display":"inpatient encounter"},"type":[{"coding":[{"system":"http://snomed.info/sct","code":"8715000"}]}],"subject":{"reference":"Patient/85099d00-576e-495a-97de-b1cd5d4377cf"},"period":{"start":"2025-06-08T08:00:00.000Z","end":"2025-06-10T08:15:00.000Z"},"length":{"value":2.0,"unit":"days"},"diagnosis":[{"condition":{"reference":"Condition/delivery-of-singleton-f83c"},"use":{"coding":[{"system":"http://snomed.info/sct","code":"169826009","display":"Delivery of Singleton"}]}},{"condition":{"reference":"Condition/delivery-of-singleton-4b09"}}]},"request":{"method":"PUT","url":"Encounter/a2ce3f4a-e8d5-4f34-aa25-431d0ee179e9"}},{"fullUrl":"https://madie.cms.gov/Procedure/5d014eb2b848460872380569","resource":{"resourceType":"Procedure","id":"f59998c4-dc9a-46e0-8347-e7ca783ccdb6","meta":{"profile":["http://hl7.org/fhir/us/qicore/StructureDefinition/qicore-procedure"]},"extension":[{"url":"http://hl7.org/fhir/us/qicore/StructureDefinition/qicore-recorded","valueDateTime":"2013-04-05T09:35:00-04:00"}],"status":"completed","code":{"coding":[{"system":"http://www.cms.gov/Medicare/Coding/ICD10","code":"10D00Z0"},{"system":"http://snomed.info/sct","code":"4504004"},{"system":"http://www.icd10data.com/icd10pcs","code":"10D00Z0","userSelected":true}]},"subject":{"reference":"Patient/85099d00-576e-495a-97de-b1cd5d4377cf"},"performedPeriod":{"start":"2025-06-08T20:00:00.000Z","end":"2025-06-08T20:15:00.000Z"}},"request":{"method":"PUT","url":"Procedure/f59998c4-dc9a-46e0-8347-e7ca783ccdb6"}},{"fullUrl":"https://madie.cms.gov/Condition/delivery-of-singleton-4b09","resource":{"resourceType":"Condition","id":"92ad1e90-4ebf-4e2a-954d-dbad10c77323","meta":{"profile":["http://hl7.org/fhir/us/qicore/StructureDefinition/qicore-condition"]},"category":[{"coding":[{"system":"http://terminology.hl7.org/CodeSystem/condition-category","code":"encounter-diagnosis","display":"Encounter Diagnosis"}]}],"code":{"coding":[{"system":"http://snomed.info/sct","version":"2022-09","code":"169826009","display":"Single live birth (finding)","userSelected":true}]},"subject":{"reference":"Patient/85099d00-576e-495a-97de-b1cd5d4377cf"},"recordedDate":"2025-10-21T08:00:00.000+00:00"},"request":{"method":"PUT","url":"Condition/92ad1e90-4ebf-4e2a-954d-dbad10c77323"}},{"fullUrl":"https://madie.cms.gov/Coverage/1","resource":{"resourceType":"Coverage","id":"f521b9c2-4fc7-47cb-aa83-013313ae45d3","meta":{"profile":["http://hl7.org/fhir/us/qicore/StructureDefinition/qicore-coverage"]},"status":"active","beneficiary":{"reference":"Patient/85099d00-576e-495a-97de-b1cd5d4377cf"},"payor":[{"reference":"Organization/024e2731-b045-43bf-80d2-684774c5b51c"}]},"request":{"method":"PUT","url":"Coverage/f521b9c2-4fc7-47cb-aa83-013313ae45d3"}},{"fullUrl":"https://madie.cms.gov/Organization/123456","resource":{"resourceType":"Organization","id":"024e2731-b045-43bf-80d2-684774c5b51c","meta":{"profile":["http://hl7.org/fhir/us/qicore/StructureDefinition/qicore-organization"]},"identifier":[{"use":"temp","system":"urn:oid:2.16.840.1.113883.4.4","value":"21-3259825"}],"active":true,"type":[{"coding":[{"system":"http://terminology.hl7.org/CodeSystem/organization-type","code":"pay","display":"Payer"}]}],"name":"Blue Cross Blue Shield of Texas","telecom":[{"system":"phone","value":"(+1) 972-766-6900"}],"address":[{"use":"billing","type":"postal","line":["P.O. Box 660044"],"city":"Dallas","state":"TX","postalCode":"75266-0044","country":"USA"}]},"request":{"method":"PUT","url":"Organization/024e2731-b045-43bf-80d2-684774c5b51c"}},{"fullUrl":"https://madie.cms.gov/Practitioner/practitioner-123456","resource":{"resourceType":"Practitioner","id":"629b4773-5814-49fe-8655-c2833349703f","identifier":[{"system":"http://hl7.org/fhir/sid/us-npi","value":"123456"}],"name":[{"family":"Evil","prefix":["Dr"]}]},"request":{"method":"PUT","url":"Practitioner/629b4773-5814-49fe-8655-c2833349703f"}},{"fullUrl":"https://madie.cms.gov/MeasureReport/144b7061-80bf-4636-b78f-8a8d99d30381","resource":{"resourceType":"MeasureReport","id":"144b7061-80bf-4636-b78f-8a8d99d30381","meta":{"profile":["http://hl7.org/fhir/us/cqfmeasures/StructureDefinition/test-case-cqfm"]},"contained":[{"resourceType":"Parameters","id":"1866e722-b248-4a8a-a1a1-c929b24d5661-parameters","parameter":[{"name":"subject","valueString":"85099d00-576e-495a-97de-b1cd5d4377cf"}]}],"extension":[{"url":"http://hl7.org/fhir/us/cqfmeasures/StructureDefinition/cqfm-inputParameters","valueReference":{"reference":"#1866e722-b248-4a8a-a1a1-c929b24d5661-parameters"}},{"url":"http://hl7.org/fhir/us/cqfmeasures/StructureDefinition/cqfm-testCaseDescription","valueMarkdown":"Parity=0, Rel date/time before 42 weeks 1min prior to delivery  date/time.  \n"}],"modifierExtension":[{"url":"http://hl7.org/fhir/us/cqfmeasures/StructureDefinition/cqfm-isTestCase","valueBoolean":true}],"status":"complete","type":"individual","measure":"https://madie.cms.gov/Measure/CesareanBirthFHIR","period":{"start":"2025-01-01","end":"2025-12-31"},"group":[{"population":[{"code":{"coding":[{"system":"http://terminology.hl7.org/CodeSystem/measure-population","code":"initial-population","display":"Initial Population"}]},"count":1},{"code":{"coding":[{"system":"http://terminology.hl7.org/CodeSystem/measure-population","code":"denominator","display":"Denominator"}]},"count":0},{"code":{"coding":[{"system":"http://terminology.hl7.org/CodeSystem/measure-population","code":"denominator-exclusion","display":"Denominator Exclusion"}]},"count":0},{"code":{"coding":[{"system":"http://terminology.hl7.org/CodeSystem/measure-population","code":"numerator","display":"Numerator"}]},"count":0}]}]},"request":{"method":"PUT","url":"MeasureReport/144b7061-80bf-4636-b78f-8a8d99d30381"}}]}