{"resourceType":"Bundle","id":"tests-6131e62d-2869-4814-9060-4442dbcdc7be-bundle","type":"transaction","entry":[{"fullUrl":"https://madie.cms.gov/Patient/6131e62d-2869-4814-9060-4442dbcdc7be","resource":{"resourceType":"Patient","id":"6131e62d-2869-4814-9060-4442dbcdc7be","meta":{"profile":["http://hl7.org/fhir/us/qicore/StructureDefinition/qicore-patient"]},"text":{"status":"generated","div":"<div xmlns=\"http://www.w3.org/1999/xhtml\"><div class=\"hapiHeaderText\">AssessPerfAbnPresRelvtPeriodAFTimeOfDeliv_DuringEnc <b>DENEXFAIL </b></div><table class=\"hapiPropertyTable\"><tbody><tr><td>Identifier</td><td>db09244543fe550232b604cb7d87decbeb851047882e641e3fe736fdce398a0a</td></tr><tr><td>Date of birth</td><td><span>14 February 1985</span></td></tr></tbody></table></div>"},"extension":[{"url":"http://hl7.org/fhir/us/core/StructureDefinition/us-core-race","extension":[{"url":"ombCategory","valueCoding":{"system":"urn:oid:2.16.840.1.113883.6.238","code":"1002-5","display":"American Indian or Alaska Native","userSelected":true}},{"url":"text","valueString":"American Indian or Alaska Native"}]},{"url":"http://hl7.org/fhir/us/core/StructureDefinition/us-core-ethnicity","extension":[{"url":"ombCategory","valueCoding":{"system":"urn:oid:2.16.840.1.113883.6.238","code":"2135-2","display":"Hispanic or Latino","userSelected":true}},{"url":"text","valueString":"Hispanic or Latino"}]}],"identifier":[{"type":{"coding":[{"system":"http://terminology.hl7.org/CodeSystem/v2-0203","code":"MR"}]},"system":"https://bonnie-fhir.healthit.gov/","value":"63487c300968f801225401d0"}],"active":true,"name":[{"use":"usual","family":"DENEXFail","given":["AssessPerfAbnPresRelvtPeriodAFTimeOfDeliv_DuringEnc"]}],"gender":"female","birthDate":"1997-02-14"},"request":{"method":"PUT","url":"Patient/6131e62d-2869-4814-9060-4442dbcdc7be"}},{"fullUrl":"https://madie.cms.gov/Observation/5d014eb2b8484608723805f9","resource":{"resourceType":"Observation","id":"77b936e0-bc00-48dc-b61f-02c4385e6a27","meta":{"profile":["http://hl7.org/fhir/us/qicore/StructureDefinition/qicore-observation"]},"status":"final","category":[{"coding":[{"system":"http://terminology.hl7.org/CodeSystem/observation-category","code":"exam","display":"exam","userSelected":true}]}],"code":{"coding":[{"system":"http://loinc.org","code":"11996-6"}]},"subject":{"reference":"Patient/6131e62d-2869-4814-9060-4442dbcdc7be"},"effectiveDateTime":"2025-06-08T08:00:00.000+00:00","valueInteger":1},"request":{"method":"PUT","url":"Observation/77b936e0-bc00-48dc-b61f-02c4385e6a27"}},{"fullUrl":"https://madie.cms.gov/Observation/5d014eb2b8484608723805fb","resource":{"resourceType":"Observation","id":"7088b8b1-034e-4210-8fb0-a74b280fb918","meta":{"profile":["http://hl7.org/fhir/us/qicore/StructureDefinition/qicore-observation"]},"status":"final","category":[{"coding":[{"system":"http://terminology.hl7.org/CodeSystem/observation-category","code":"exam","display":"exam","userSelected":true}]}],"code":{"coding":[{"system":"http://loinc.org","code":"11884-4"}]},"subject":{"reference":"Patient/6131e62d-2869-4814-9060-4442dbcdc7be"},"effectiveDateTime":"2025-06-08T08:00:00.000+00:00","valueQuantity":{"value":43.0,"system":"http://unitsofmeasure.org","code":"weeks"}},"request":{"method":"PUT","url":"Observation/7088b8b1-034e-4210-8fb0-a74b280fb918"}},{"fullUrl":"https://madie.cms.gov/Observation/5e61164ceadaae0000c2b22f","resource":{"resourceType":"Observation","id":"71c7296c-e160-450c-9305-a3283224d97a","meta":{"profile":["http://hl7.org/fhir/us/qicore/StructureDefinition/qicore-observation"]},"status":"final","category":[{"coding":[{"system":"http://terminology.hl7.org/CodeSystem/observation-category","code":"exam","display":"exam","userSelected":true}]}],"code":{"coding":[{"system":"http://loinc.org","code":"93857-1"}]},"subject":{"reference":"Patient/6131e62d-2869-4814-9060-4442dbcdc7be"},"effectiveDateTime":"2025-06-08T20:30:00.000+00:00","valueDateTime":"2025-06-08T08:30:00+00:00"},"request":{"method":"PUT","url":"Observation/71c7296c-e160-450c-9305-a3283224d97a"}},{"fullUrl":"https://madie.cms.gov/Observation/606dbe2184679a0000f3ba33","resource":{"resourceType":"Observation","id":"69e0b9ce-868c-4b5b-8105-31b51fbb1c20","meta":{"profile":["http://hl7.org/fhir/us/qicore/StructureDefinition/qicore-observation"]},"status":"final","category":[{"coding":[{"system":"http://terminology.hl7.org/CodeSystem/observation-category","code":"exam","display":"exam","userSelected":true}]}],"code":{"coding":[{"system":"http://snomed.info/sct","code":"18559007"}]},"subject":{"reference":"Patient/6131e62d-2869-4814-9060-4442dbcdc7be"},"effectivePeriod":{"start":"2025-06-08T08:35:00.000Z","end":"2025-06-08T08:35:00.000Z"}},"request":{"method":"PUT","url":"Observation/69e0b9ce-868c-4b5b-8105-31b51fbb1c20"}},{"fullUrl":"https://madie.cms.gov/Encounter/5d014eb2b8484608723805f6","resource":{"resourceType":"Encounter","id":"f9e37f19-7849-47b3-9db0-983c6a5340ea","meta":{"profile":["http://hl7.org/fhir/us/qicore/StructureDefinition/qicore-encounter"]},"status":"finished","class":{"system":"http://terminology.hl7.org/CodeSystem/v3-ActCode","code":"IMP","display":"inpatient encounter"},"type":[{"coding":[{"system":"http://snomed.info/sct","code":"8715000"}]}],"subject":{"reference":"Patient/6131e62d-2869-4814-9060-4442dbcdc7be"},"period":{"start":"2025-06-08T08:00:00.000Z","end":"2025-06-10T08:15:00.000Z"},"diagnosis":[{"condition":{"reference":"Condition/delivery-of-singleton-09a4"}}]},"request":{"method":"PUT","url":"Encounter/f9e37f19-7849-47b3-9db0-983c6a5340ea"}},{"fullUrl":"https://madie.cms.gov/Procedure/5d014eb2b8484608723805f7","resource":{"resourceType":"Procedure","id":"88227a67-f9df-4c75-89a6-6b8ad6eafeef","meta":{"profile":["http://hl7.org/fhir/us/qicore/StructureDefinition/qicore-procedure"]},"extension":[{"url":"http://hl7.org/fhir/us/qicore/StructureDefinition/qicore-recorded","valueDateTime":"2013-04-05T09:35:00-04:00"}],"status":"completed","code":{"coding":[{"system":"http://snomed.info/sct","code":"4504004"}]},"subject":{"reference":"Patient/6131e62d-2869-4814-9060-4442dbcdc7be"},"performedPeriod":{"start":"2025-06-08T20:00:00.000Z","end":"2025-06-18T20:00:00.000Z"}},"request":{"method":"PUT","url":"Procedure/88227a67-f9df-4c75-89a6-6b8ad6eafeef"}},{"fullUrl":"https://madie.cms.gov/Condition/delivery-of-singleton-09a4","resource":{"resourceType":"Condition","id":"4e817501-074c-420b-978c-eb5b5f245255","meta":{"profile":["http://hl7.org/fhir/us/qicore/StructureDefinition/qicore-condition"]},"category":[{"coding":[{"system":"http://terminology.hl7.org/CodeSystem/condition-category","code":"encounter-diagnosis","display":"Encounter Diagnosis"}]}],"code":{"coding":[{"system":"http://snomed.info/sct","version":"2022-09","code":"169826009","display":"Single live birth (finding)","userSelected":true}]},"subject":{"reference":"Patient/6131e62d-2869-4814-9060-4442dbcdc7be"},"recordedDate":"2025-10-17T08:00:00.000+00:00"},"request":{"method":"PUT","url":"Condition/4e817501-074c-420b-978c-eb5b5f245255"}},{"fullUrl":"https://madie.cms.gov/Coverage/1","resource":{"resourceType":"Coverage","id":"c2175ffc-5e7a-4358-a690-8510ef43d3ad","meta":{"profile":["http://hl7.org/fhir/us/qicore/StructureDefinition/qicore-coverage"]},"status":"active","beneficiary":{"reference":"Patient/6131e62d-2869-4814-9060-4442dbcdc7be"},"payor":[{"reference":"Organization/4b5a882f-1f43-485c-85c6-f5ad2337d5b1"}]},"request":{"method":"PUT","url":"Coverage/c2175ffc-5e7a-4358-a690-8510ef43d3ad"}},{"fullUrl":"https://madie.cms.gov/Organization/123456","resource":{"resourceType":"Organization","id":"4b5a882f-1f43-485c-85c6-f5ad2337d5b1","meta":{"profile":["http://hl7.org/fhir/us/qicore/StructureDefinition/qicore-organization"]},"identifier":[{"use":"temp","system":"urn:oid:2.16.840.1.113883.4.4","value":"21-3259825"}],"active":true,"type":[{"coding":[{"system":"http://terminology.hl7.org/CodeSystem/organization-type","code":"pay","display":"Payer"}]}],"name":"Blue Cross Blue Shield of Texas","telecom":[{"system":"phone","value":"(+1) 972-766-6900"}],"address":[{"use":"billing","type":"postal","line":["P.O. Box 660044"],"city":"Dallas","state":"TX","postalCode":"75266-0044","country":"USA"}]},"request":{"method":"PUT","url":"Organization/4b5a882f-1f43-485c-85c6-f5ad2337d5b1"}},{"fullUrl":"https://madie.cms.gov/Practitioner/practitioner-123456","resource":{"resourceType":"Practitioner","id":"aa3f6035-d07e-41b1-b97d-f3a4e93c8190","identifier":[{"system":"http://hl7.org/fhir/sid/us-npi","value":"123456"}],"name":[{"family":"Evil","prefix":["Dr"]}]},"request":{"method":"PUT","url":"Practitioner/aa3f6035-d07e-41b1-b97d-f3a4e93c8190"}},{"fullUrl":"https://madie.cms.gov/MeasureReport/dd0214a4-55bb-4710-9eb3-ede902e811db","resource":{"resourceType":"MeasureReport","id":"dd0214a4-55bb-4710-9eb3-ede902e811db","meta":{"profile":["http://hl7.org/fhir/us/cqfmeasures/StructureDefinition/test-case-cqfm"]},"contained":[{"resourceType":"Parameters","id":"8d687c13-7181-4493-a5c7-7ff80871dc0f-parameters","parameter":[{"name":"subject","valueString":"6131e62d-2869-4814-9060-4442dbcdc7be"}]}],"extension":[{"url":"http://hl7.org/fhir/us/cqfmeasures/StructureDefinition/cqfm-inputParameters","valueReference":{"reference":"#8d687c13-7181-4493-a5c7-7ff80871dc0f-parameters"}},{"url":"http://hl7.org/fhir/us/cqfmeasures/StructureDefinition/cqfm-testCaseDescription","valueMarkdown":"EGA 43 weeks; Failed DenExcl because Assessment performed Abnormal presentation relevant Period after time of delivery and during Enc \n"}],"modifierExtension":[{"url":"http://hl7.org/fhir/us/cqfmeasures/StructureDefinition/cqfm-isTestCase","valueBoolean":true}],"status":"complete","type":"individual","measure":"https://madie.cms.gov/Measure/CesareanBirthFHIR","period":{"start":"2025-01-01","end":"2025-12-31"},"group":[{"population":[{"code":{"coding":[{"system":"http://terminology.hl7.org/CodeSystem/measure-population","code":"initial-population","display":"Initial Population"}]},"count":1},{"code":{"coding":[{"system":"http://terminology.hl7.org/CodeSystem/measure-population","code":"denominator","display":"Denominator"}]},"count":1},{"code":{"coding":[{"system":"http://terminology.hl7.org/CodeSystem/measure-population","code":"denominator-exclusion","display":"Denominator Exclusion"}]},"count":0},{"code":{"coding":[{"system":"http://terminology.hl7.org/CodeSystem/measure-population","code":"numerator","display":"Numerator"}]},"count":0}]}]},"request":{"method":"PUT","url":"MeasureReport/dd0214a4-55bb-4710-9eb3-ede902e811db"}}]}