{"resourceType":"Bundle","id":"tests-93ddb758-3a75-4626-a50b-1e2b51ed4250-bundle","type":"transaction","entry":[{"fullUrl":"https://madie.cms.gov/Patient/93ddb758-3a75-4626-a50b-1e2b51ed4250","resource":{"resourceType":"Patient","id":"93ddb758-3a75-4626-a50b-1e2b51ed4250","meta":{"profile":["http://hl7.org/fhir/us/qicore/StructureDefinition/qicore-patient"]},"text":{"status":"generated","div":"<div xmlns=\"http://www.w3.org/1999/xhtml\"><div class=\"hapiHeaderText\">AssessG1P1PreTerm1Term1 <b>DENPASS </b></div><table class=\"hapiPropertyTable\"><tbody><tr><td>Identifier</td><td>919742ce7259ec7b9de1654b5e814cf859dc5253e7d4839ac3b7c6fbe1734140</td></tr><tr><td>Date of birth</td><td><span>14 February 1985</span></td></tr></tbody></table></div>"},"extension":[{"url":"http://hl7.org/fhir/us/core/StructureDefinition/us-core-race","extension":[{"url":"ombCategory","valueCoding":{"system":"urn:oid:2.16.840.1.113883.6.238","code":"1002-5","display":"American Indian or Alaska Native","userSelected":true}},{"url":"text","valueString":"American Indian or Alaska Native"}]},{"url":"http://hl7.org/fhir/us/core/StructureDefinition/us-core-ethnicity","extension":[{"url":"ombCategory","valueCoding":{"system":"urn:oid:2.16.840.1.113883.6.238","code":"2135-2","display":"Hispanic or Latino","userSelected":true}},{"url":"text","valueString":"Hispanic or Latino"}]}],"identifier":[{"type":{"coding":[{"system":"http://terminology.hl7.org/CodeSystem/v2-0203","code":"MR"}]},"system":"https://bonnie-fhir.healthit.gov/","value":"63487c300968f801225401c3"}],"active":true,"name":[{"use":"usual","family":"DENPass","given":["AssessG1P1PreTerm1Term1"]}],"gender":"female","birthDate":"1997-02-14"},"request":{"method":"PUT","url":"Patient/93ddb758-3a75-4626-a50b-1e2b51ed4250"}},{"fullUrl":"https://madie.cms.gov/Observation/5d014eb2b8484608723805bd","resource":{"resourceType":"Observation","id":"fdb4bdf2-a12a-48d6-8ff9-2ed654315231","meta":{"profile":["http://hl7.org/fhir/us/qicore/StructureDefinition/qicore-observation"]},"status":"final","category":[{"coding":[{"system":"http://terminology.hl7.org/CodeSystem/observation-category","code":"exam","display":"exam","userSelected":true}]}],"code":{"coding":[{"system":"http://loinc.org","code":"11884-4"}]},"subject":{"reference":"Patient/93ddb758-3a75-4626-a50b-1e2b51ed4250"},"effectiveDateTime":"2025-06-08T09:15:00.000+00:00","valueQuantity":{"value":38.0,"system":"http://unitsofmeasure.org","code":"weeks"}},"request":{"method":"PUT","url":"Observation/fdb4bdf2-a12a-48d6-8ff9-2ed654315231"}},{"fullUrl":"https://madie.cms.gov/Observation/5d014eb2b8484608723805bf","resource":{"resourceType":"Observation","id":"e8f0a914-e5c8-4b7c-8d18-2b9d40c7d76a","meta":{"profile":["http://hl7.org/fhir/us/qicore/StructureDefinition/qicore-observation"]},"status":"final","category":[{"coding":[{"system":"http://terminology.hl7.org/CodeSystem/observation-category","code":"exam","display":"exam","userSelected":true}]}],"code":{"coding":[{"system":"http://loinc.org","code":"11996-6"}]},"subject":{"reference":"Patient/93ddb758-3a75-4626-a50b-1e2b51ed4250"},"effectiveDateTime":"2025-06-08T19:59:00.000+00:00","valueInteger":1},"request":{"method":"PUT","url":"Observation/e8f0a914-e5c8-4b7c-8d18-2b9d40c7d76a"}},{"fullUrl":"https://madie.cms.gov/Observation/5e6168813e992300009b7069","resource":{"resourceType":"Observation","id":"8c840e51-0158-4b05-abce-df6c552e17c4","meta":{"profile":["http://hl7.org/fhir/us/qicore/StructureDefinition/qicore-observation"]},"status":"final","category":[{"coding":[{"system":"http://terminology.hl7.org/CodeSystem/observation-category","code":"exam","display":"exam","userSelected":true}]}],"code":{"coding":[{"system":"http://loinc.org","code":"93857-1"}]},"subject":{"reference":"Patient/93ddb758-3a75-4626-a50b-1e2b51ed4250"},"effectiveDateTime":"2025-06-08T20:00:00.000+00:00","valueDateTime":"2025-06-08T20:00:00+00:00"},"request":{"method":"PUT","url":"Observation/8c840e51-0158-4b05-abce-df6c552e17c4"}},{"fullUrl":"https://madie.cms.gov/Observation/5eaf66f94c5e660000c5a755","resource":{"resourceType":"Observation","id":"2f85c0f4-7369-4cd4-90e6-eeb19493676f","meta":{"profile":["http://hl7.org/fhir/us/qicore/StructureDefinition/qicore-observation"]},"status":"final","category":[{"coding":[{"system":"http://terminology.hl7.org/CodeSystem/observation-category","code":"exam","display":"exam","userSelected":true}]}],"code":{"coding":[{"system":"http://loinc.org","code":"11977-6"}]},"subject":{"reference":"Patient/93ddb758-3a75-4626-a50b-1e2b51ed4250"},"effectiveDateTime":"2025-06-08T19:59:00.000+00:00","valueInteger":1},"request":{"method":"PUT","url":"Observation/2f85c0f4-7369-4cd4-90e6-eeb19493676f"}},{"fullUrl":"https://madie.cms.gov/Observation/5eaf67214c5e660000c5a773","resource":{"resourceType":"Observation","id":"1577cc87-c4c3-4865-9f21-71d782babf64","meta":{"profile":["http://hl7.org/fhir/us/qicore/StructureDefinition/qicore-observation"]},"status":"final","category":[{"coding":[{"system":"http://terminology.hl7.org/CodeSystem/observation-category","code":"exam","display":"exam","userSelected":true}]}],"code":{"coding":[{"system":"http://loinc.org","code":"11637-6"}]},"subject":{"reference":"Patient/93ddb758-3a75-4626-a50b-1e2b51ed4250"},"effectiveDateTime":"2025-06-08T19:59:00.000+00:00","valueInteger":1},"request":{"method":"PUT","url":"Observation/1577cc87-c4c3-4865-9f21-71d782babf64"}},{"fullUrl":"https://madie.cms.gov/Observation/5eaf67294c5e660000c5a784","resource":{"resourceType":"Observation","id":"b278fbfb-5873-44b6-8c24-4f74011a88f3","meta":{"profile":["http://hl7.org/fhir/us/qicore/StructureDefinition/qicore-observation"]},"status":"final","category":[{"coding":[{"system":"http://terminology.hl7.org/CodeSystem/observation-category","code":"exam","display":"exam","userSelected":true}]}],"code":{"coding":[{"system":"http://loinc.org","code":"11639-2"}]},"subject":{"reference":"Patient/93ddb758-3a75-4626-a50b-1e2b51ed4250"},"effectiveDateTime":"2025-06-08T19:59:00.000+00:00","valueInteger":1},"request":{"method":"PUT","url":"Observation/b278fbfb-5873-44b6-8c24-4f74011a88f3"}},{"fullUrl":"https://madie.cms.gov/Encounter/5d014eb2b8484608723805bb","resource":{"resourceType":"Encounter","id":"eaf186e3-7597-41d3-9ac3-5c58d84a382f","meta":{"profile":["http://hl7.org/fhir/us/qicore/StructureDefinition/qicore-encounter"]},"status":"finished","class":{"system":"http://terminology.hl7.org/CodeSystem/v3-ActCode","code":"IMP","display":"inpatient encounter"},"type":[{"coding":[{"system":"http://snomed.info/sct","code":"183452005"}]}],"subject":{"reference":"Patient/93ddb758-3a75-4626-a50b-1e2b51ed4250"},"period":{"start":"2025-06-08T08:00:00.000Z","end":"2025-06-10T08:15:00.000Z"},"length":{"value":2.0,"unit":"days"},"diagnosis":[{"condition":{"reference":"Condition/delivery-of-singleton-f83c"},"use":{"coding":[{"system":"http://snomed.info/sct","code":"169826009","display":"Delivery of Singleton"}]}},{"condition":{"reference":"Condition/delivery-of-singleton-4d27"}}]},"request":{"method":"PUT","url":"Encounter/eaf186e3-7597-41d3-9ac3-5c58d84a382f"}},{"fullUrl":"https://madie.cms.gov/Procedure/5d014eb2b8484608723805bc","resource":{"resourceType":"Procedure","id":"fa1f127c-a053-409f-b95c-bd730b212564","meta":{"profile":["http://hl7.org/fhir/us/qicore/StructureDefinition/qicore-procedure"]},"extension":[{"url":"http://hl7.org/fhir/us/qicore/StructureDefinition/qicore-recorded","valueDateTime":"2013-04-05T09:35:00-04:00"}],"status":"completed","code":{"coding":[{"system":"http://www.cms.gov/Medicare/Coding/ICD10","code":"10D07Z3"},{"system":"http://www.icd10data.com/icd10pcs","code":"10D07Z3","userSelected":true}]},"subject":{"reference":"Patient/93ddb758-3a75-4626-a50b-1e2b51ed4250"},"performedPeriod":{"start":"2025-06-08T08:10:00.000Z","end":"2025-06-08T09:14:00.000Z"}},"request":{"method":"PUT","url":"Procedure/fa1f127c-a053-409f-b95c-bd730b212564"}},{"fullUrl":"https://madie.cms.gov/Condition/delivery-of-singleton-4d27","resource":{"resourceType":"Condition","id":"9b843928-9a32-4c37-ab41-efeae451841a","meta":{"profile":["http://hl7.org/fhir/us/qicore/StructureDefinition/qicore-condition"]},"category":[{"coding":[{"system":"http://terminology.hl7.org/CodeSystem/condition-category","code":"encounter-diagnosis","display":"Encounter Diagnosis"}]}],"code":{"coding":[{"system":"http://snomed.info/sct","version":"2022-09","code":"169826009","display":"Single live birth (finding)","userSelected":true}]},"subject":{"reference":"Patient/93ddb758-3a75-4626-a50b-1e2b51ed4250"},"recordedDate":"2025-10-18T08:00:00.000+00:00"},"request":{"method":"PUT","url":"Condition/9b843928-9a32-4c37-ab41-efeae451841a"}},{"fullUrl":"https://madie.cms.gov/Coverage/1","resource":{"resourceType":"Coverage","id":"2354f60e-acc2-42c6-a67d-ed5829441bf9","meta":{"profile":["http://hl7.org/fhir/us/qicore/StructureDefinition/qicore-coverage"]},"status":"active","beneficiary":{"reference":"Patient/93ddb758-3a75-4626-a50b-1e2b51ed4250"},"payor":[{"reference":"Organization/41c75c00-82d9-4ab2-98f6-cfaf7fc3381d"}]},"request":{"method":"PUT","url":"Coverage/2354f60e-acc2-42c6-a67d-ed5829441bf9"}},{"fullUrl":"https://madie.cms.gov/Organization/123456","resource":{"resourceType":"Organization","id":"41c75c00-82d9-4ab2-98f6-cfaf7fc3381d","meta":{"profile":["http://hl7.org/fhir/us/qicore/StructureDefinition/qicore-organization"]},"identifier":[{"use":"temp","system":"urn:oid:2.16.840.1.113883.4.4","value":"21-3259825"}],"active":true,"type":[{"coding":[{"system":"http://terminology.hl7.org/CodeSystem/organization-type","code":"pay","display":"Payer"}]}],"name":"Blue Cross Blue Shield of Texas","telecom":[{"system":"phone","value":"(+1) 972-766-6900"}],"address":[{"use":"billing","type":"postal","line":["P.O. Box 660044"],"city":"Dallas","state":"TX","postalCode":"75266-0044","country":"USA"}]},"request":{"method":"PUT","url":"Organization/41c75c00-82d9-4ab2-98f6-cfaf7fc3381d"}},{"fullUrl":"https://madie.cms.gov/Practitioner/practitioner-123456","resource":{"resourceType":"Practitioner","id":"8d559c7b-6941-4665-b0db-2ee7460fa717","identifier":[{"system":"http://hl7.org/fhir/sid/us-npi","value":"123456"}],"name":[{"family":"Evil","prefix":["Dr"]}]},"request":{"method":"PUT","url":"Practitioner/8d559c7b-6941-4665-b0db-2ee7460fa717"}},{"fullUrl":"https://madie.cms.gov/MeasureReport/df51287a-2f3b-44b6-8fc7-eb26cb25e4fa","resource":{"resourceType":"MeasureReport","id":"df51287a-2f3b-44b6-8fc7-eb26cb25e4fa","meta":{"profile":["http://hl7.org/fhir/us/cqfmeasures/StructureDefinition/test-case-cqfm"]},"contained":[{"resourceType":"Parameters","id":"5fb1a193-ce65-492e-aa86-85d9fc115781-parameters","parameter":[{"name":"subject","valueString":"93ddb758-3a75-4626-a50b-1e2b51ed4250"}]}],"extension":[{"url":"http://hl7.org/fhir/us/cqfmeasures/StructureDefinition/cqfm-inputParameters","valueReference":{"reference":"#5fb1a193-ce65-492e-aa86-85d9fc115781-parameters"}},{"url":"http://hl7.org/fhir/us/cqfmeasures/StructureDefinition/cqfm-testCaseDescription","valueMarkdown":"Passes: IP, Pt is 27 years of age,  encounter dx delivery of singleton, gravida = 1, parity =1, Preterm = 1, Term = 1\n"}],"modifierExtension":[{"url":"http://hl7.org/fhir/us/cqfmeasures/StructureDefinition/cqfm-isTestCase","valueBoolean":true}],"status":"complete","type":"individual","measure":"https://madie.cms.gov/Measure/CesareanBirthFHIR","period":{"start":"2025-01-01","end":"2025-12-31"},"group":[{"population":[{"code":{"coding":[{"system":"http://terminology.hl7.org/CodeSystem/measure-population","code":"initial-population","display":"Initial Population"}]},"count":1},{"code":{"coding":[{"system":"http://terminology.hl7.org/CodeSystem/measure-population","code":"denominator","display":"Denominator"}]},"count":1},{"code":{"coding":[{"system":"http://terminology.hl7.org/CodeSystem/measure-population","code":"denominator-exclusion","display":"Denominator Exclusion"}]},"count":0},{"code":{"coding":[{"system":"http://terminology.hl7.org/CodeSystem/measure-population","code":"numerator","display":"Numerator"}]},"count":0}]}]},"request":{"method":"PUT","url":"MeasureReport/df51287a-2f3b-44b6-8fc7-eb26cb25e4fa"}}]}