{
  "resourceType": "Bundle",
  "id": "Patient-26-DENEXFail-XRay7DayAfterPregnancyTestDurMP",
  "type": "transaction",
  "entry": [ {
    "fullUrl": "https://madie.cms.gov/Patient/a9058aec-b114-48e6-8f29-fe7b812b7d82",
    "resource": {
      "resourceType": "Patient",
      "id": "a9058aec-b114-48e6-8f29-fe7b812b7d82",
      "meta": {
        "profile": [ "http://hl7.org/fhir/us/qicore/StructureDefinition/qicore-patient" ]
      },
      "extension": [ {
        "url": "http://hl7.org/fhir/us/core/StructureDefinition/us-core-race",
        "extension": [ {
          "url": "ombCategory",
          "valueCoding": {
            "system": "urn:oid:2.16.840.1.113883.6.238",
            "code": "2028-9",
            "display": "Asian"
          }
        }, {
          "url": "text",
          "valueString": "Asian"
        } ]
      }, {
        "url": "http://hl7.org/fhir/us/core/StructureDefinition/us-core-ethnicity",
        "extension": [ {
          "url": "ombCategory",
          "valueCoding": {
            "system": "urn:oid:2.16.840.1.113883.6.238",
            "code": "2135-2",
            "display": "Hispanic or Latino"
          }
        }, {
          "url": "text",
          "valueString": "Hispanic or Latino"
        } ]
      } ],
      "identifier": [ {
        "system": "http://hospital.smarthealthit.org",
        "value": "999999995"
      } ],
      "name": [ {
        "family": "Bertha",
        "given": [ "Betty" ]
      } ],
      "gender": "female",
      "birthDate": "2001-12-31"
    },
    "request": {
      "method": "POST",
      "url": "Patient/a9058aec-b114-48e6-8f29-fe7b812b7d82"
    }
  }, {
    "fullUrl": "https://madie.cms.gov/Encounter/Encounter-28",
    "resource": {
      "resourceType": "Encounter",
      "id": "Encounter-28",
      "meta": {
        "profile": [ "http://hl7.org/fhir/us/qicore/StructureDefinition/qicore-encounter" ]
      },
      "status": "finished",
      "class": {
        "system": "http://terminology.hl7.org/CodeSystem/v3-ActCode",
        "code": "AMB",
        "display": "ambulatory"
      },
      "type": [ {
        "coding": [ {
          "system": "http://snomed.info/sct",
          "code": "185317003",
          "display": "Telephone encounter (procedure)"
        } ]
      } ],
      "subject": {
        "reference": "Patient/a9058aec-b114-48e6-8f29-fe7b812b7d82"
      },
      "period": {
        "start": "2025-01-01T00:00:00.000Z",
        "end": "2025-01-01T00:15:00.000Z"
      }
    },
    "request": {
      "method": "POST",
      "url": "Encounter/Encounter-28"
    }
  }, {
    "fullUrl": "https://madie.cms.gov/ServiceRequest/ServiceRequest-11",
    "resource": {
      "resourceType": "ServiceRequest",
      "id": "ServiceRequest-11",
      "meta": {
        "profile": [ "http://hl7.org/fhir/us/qicore/StructureDefinition/qicore-servicerequest" ]
      },
      "extension": [ {
        "url": "http://hl7.org/fhir/StructureDefinition/request-statusReason",
        "valueCodeableConcept": {
          "coding": [ {
            "system": "http://snomed.info/sct",
            "code": "15635006",
            "display": "Requested by Patient"
          } ]
        }
      } ],
      "status": "completed",
      "intent": "order",
      "category": [ {
        "coding": [ {
          "system": "http://snomed.info/sct",
          "code": "387713003",
          "display": "Surgical procedure"
        } ]
      } ],
      "priority": "routine",
      "code": {
        "coding": [ {
          "system": "http://loinc.org",
          "code": "19080-1",
          "display": "Choriogonadotropin [Units/volume] in Serum or Plasma"
        } ]
      },
      "subject": {
        "reference": "Patient/a9058aec-b114-48e6-8f29-fe7b812b7d82"
      },
      "encounter": {
        "reference": "Encounter/Encounter-28"
      },
      "occurrenceDateTime": "2025-01-01",
      "authoredOn": "2025-01-01",
      "performerType": {
        "coding": [ {
          "system": "http://snomed.info/sct",
          "code": "405279007",
          "display": "Attending physician (occupation)"
        } ]
      },
      "reasonCode": [ {
        "coding": [ {
          "system": "http://snomed.info/sct",
          "code": "123614006",
          "display": "Partial Cataract (disorder)"
        } ]
      } ]
    },
    "request": {
      "method": "POST",
      "url": "ServiceRequest/ServiceRequest-11"
    }
  }, {
    "fullUrl": "https://madie.cms.gov/ServiceRequest/ServiceRequest-12",
    "resource": {
      "resourceType": "ServiceRequest",
      "id": "ServiceRequest-12",
      "meta": {
        "profile": [ "http://hl7.org/fhir/us/qicore/StructureDefinition/qicore-servicerequest" ]
      },
      "extension": [ {
        "url": "http://hl7.org/fhir/StructureDefinition/request-statusReason",
        "valueCodeableConcept": {
          "coding": [ {
            "system": "http://snomed.info/sct",
            "code": "15635006",
            "display": "Requested by Patient"
          } ]
        }
      } ],
      "status": "completed",
      "intent": "order",
      "category": [ {
        "coding": [ {
          "system": "http://snomed.info/sct",
          "code": "387713003",
          "display": "Surgical procedure"
        } ]
      } ],
      "priority": "routine",
      "code": {
        "coding": [ {
          "system": "http://loinc.org",
          "code": "24535-7",
          "display": "XR Acetabulum Views"
        } ]
      },
      "subject": {
        "reference": "Patient/a9058aec-b114-48e6-8f29-fe7b812b7d82"
      },
      "encounter": {
        "reference": "Encounter/Encounter-28"
      },
      "occurrenceDateTime": "2025-01-08",
      "authoredOn": "2025-01-08",
      "performerType": {
        "coding": [ {
          "system": "http://snomed.info/sct",
          "code": "405279007",
          "display": "Attending physician (occupation)"
        } ]
      },
      "reasonCode": [ {
        "coding": [ {
          "system": "http://snomed.info/sct",
          "code": "123614006",
          "display": "Partial Cataract (disorder)"
        } ]
      } ]
    },
    "request": {
      "method": "POST",
      "url": "ServiceRequest/ServiceRequest-12"
    }
  }, {
    "fullUrl": "https://madie.cms.gov/MeasureReport/ec452622-038e-4c99-954c-f1beccf42026",
    "resource": {
      "resourceType": "MeasureReport",
      "id": "ec452622-038e-4c99-954c-f1beccf42026",
      "meta": {
        "profile": [ "http://hl7.org/fhir/us/cqfmeasures/StructureDefinition/test-case-cqfm" ]
      },
      "contained": [ {
        "resourceType": "Parameters",
        "id": "4c24d935-34c5-4bb0-b89a-b4765509c81f-parameters",
        "parameter": [ {
          "name": "subject",
          "valueString": "a9058aec-b114-48e6-8f29-fe7b812b7d82"
        } ]
      } ],
      "extension": [ {
        "url": "http://hl7.org/fhir/us/cqfmeasures/StructureDefinition/cqfm-inputParameters",
        "valueReference": {
          "reference": "#4c24d935-34c5-4bb0-b89a-b4765509c81f-parameters"
        }
      }, {
        "url": "http://hl7.org/fhir/us/cqfmeasures/StructureDefinition/cqfm-testCaseDescription",
        "valueMarkdown": "X-ray 7 days after a pregnancy test"
      } ],
      "modifierExtension": [ {
        "url": "http://hl7.org/fhir/us/cqfmeasures/StructureDefinition/cqfm-isTestCase",
        "valueBoolean": true
      } ],
      "status": "complete",
      "type": "individual",
      "measure": "https://madie.cms.gov/Measure/ChlamydiaScreeninginWomenFHIR",
      "period": {
        "start": "2025-01-01",
        "end": "2025-12-31"
      },
      "group": [ {
        "population": [ {
          "code": {
            "coding": [ {
              "system": "http://terminology.hl7.org/CodeSystem/measure-population",
              "code": "initial-population",
              "display": "Initial Population"
            } ]
          },
          "count": 1
        }, {
          "code": {
            "coding": [ {
              "system": "http://terminology.hl7.org/CodeSystem/measure-population",
              "code": "denominator",
              "display": "Denominator"
            } ]
          },
          "count": 1
        }, {
          "code": {
            "coding": [ {
              "system": "http://terminology.hl7.org/CodeSystem/measure-population",
              "code": "denominator-exclusion",
              "display": "Denominator Exclusion"
            } ]
          },
          "count": 0
        }, {
          "code": {
            "coding": [ {
              "system": "http://terminology.hl7.org/CodeSystem/measure-population",
              "code": "numerator",
              "display": "Numerator"
            } ]
          },
          "count": 0
        } ]
      } ],
      "evaluatedResource": [ {
        "reference": "https://madie.cms.gov/Patient/a9058aec-b114-48e6-8f29-fe7b812b7d82"
      }, {
        "reference": "https://madie.cms.gov/Encounter/Encounter-28"
      }, {
        "reference": "https://madie.cms.gov/ServiceRequest/ServiceRequest-11"
      }, {
        "reference": "https://madie.cms.gov/ServiceRequest/ServiceRequest-12"
      } ]
    },
    "request": {
      "method": "POST",
      "url": "MeasureReport/ec452622-038e-4c99-954c-f1beccf42026"
    }
  } ]
}