{
  "resourceType": "Bundle",
  "id": "6129135a02c62a011f2e777e",
  "type": "transaction",
  "entry": [ {
    "fullUrl": "https://madie.cms.gov/Patient/003b2da3-b46a-4b24-91be-65ef27eef3bc",
    "resource": {
      "resourceType": "Patient",
      "id": "003b2da3-b46a-4b24-91be-65ef27eef3bc",
      "meta": {
        "profile": [ "http://hl7.org/fhir/us/qicore/StructureDefinition/qicore-patient" ]
      },
      "text": {
        "status": "generated",
        "div": "<div xmlns=\"http://www.w3.org/1999/xhtml\"><div class=\"hapiHeaderText\">NonEleInpEncounter_AgeGT18LOSLT120Ethnicity <b>IPPASS </b></div><table class=\"hapiPropertyTable\"><tbody><tr><td>Identifier</td><td>98bbafa0f3f0ba2f58ea7c825e2454d6</td></tr><tr><td>Date of birth</td><td><span>20 August 1993</span></td></tr></tbody></table></div>"
      },
      "extension": [ {
        "url": "http://hl7.org/fhir/us/core/StructureDefinition/us-core-race",
        "extension": [ {
          "url": "ombCategory",
          "valueCoding": {
            "system": "urn:oid:2.16.840.1.113883.6.238",
            "code": "1002-5",
            "display": "American Indian or Alaska Native",
            "userSelected": true
          }
        }, {
          "url": "text",
          "valueString": "American Indian or Alaska Native"
        } ]
      }, {
        "url": "http://hl7.org/fhir/us/core/StructureDefinition/us-core-ethnicity",
        "extension": [ {
          "url": "ombCategory",
          "valueCoding": {
            "system": "urn:oid:2.16.840.1.113883.6.238",
            "code": "2135-2",
            "display": "Hispanic or Latino",
            "userSelected": true
          }
        }, {
          "url": "text",
          "valueString": "Hispanic or Latino"
        } ]
      } ],
      "identifier": [ {
        "type": {
          "coding": [ {
            "system": "http://terminology.hl7.org/CodeSystem/v2-0203",
            "code": "MR"
          } ]
        },
        "system": "https://bonnie-fhir.healthit.gov/",
        "value": "6129135a02c62a011f2e777e"
      } ],
      "active": true,
      "name": [ {
        "use": "usual",
        "family": "IPPass",
        "given": [ "NonEleInpEncounter_AgeGT18LOSLT120EthnGenCov" ]
      } ],
      "gender": "other",
      "birthDate": "2002-08-20"
    },
    "request": {
      "method": "PUT",
      "url": "Patient/003b2da3-b46a-4b24-91be-65ef27eef3bc"
    }
  }, {
    "fullUrl": "https://madie.cms.gov/Encounter/5c954112b8484612c37f277f",
    "resource": {
      "resourceType": "Encounter",
      "id": "5c954112b8484612c37f277f",
      "meta": {
        "profile": [ "http://hl7.org/fhir/us/qicore/StructureDefinition/qicore-encounter" ]
      },
      "status": "finished",
      "class": {
        "system": "http://terminology.hl7.org/CodeSystem/v3-ActCode",
        "code": "IMP",
        "display": "inpatient encounter",
        "userSelected": true
      },
      "type": [ {
        "coding": [ {
          "system": "http://snomed.info/sct",
          "code": "32485007"
        } ]
      } ],
      "subject": {
        "reference": "Patient/003b2da3-b46a-4b24-91be-65ef27eef3bc"
      },
      "period": {
        "start": "2025-08-21T00:00:00.000+00:00",
        "end": "2025-12-18T23:59:00.000+00:00"
      },
      "length": {
        "value": 119,
        "unit": "days"
      },
      "diagnosis": [ {
        "condition": {
          "reference": "Condition/hemorrhagic-stroke-7d4b"
        },
        "use": {
          "coding": [ {
            "system": "http://snomed.info/sct",
            "code": "195155004",
            "display": "Hemorrhagic Stroke"
          } ]
        },
        "rank": 1
      } ]
    },
    "request": {
      "method": "PUT",
      "url": "Encounter/5c954112b8484612c37f277f"
    }
  }, {
    "fullUrl": "https://madie.cms.gov/Condition/hemorrhagic-stroke-7d4b",
    "resource": {
      "resourceType": "Condition",
      "id": "hemorrhagic-stroke-7d4b",
      "meta": {
        "profile": [ "http://hl7.org/fhir/us/qicore/StructureDefinition/qicore-condition" ]
      },
      "clinicalStatus": {
        "coding": [ {
          "system": "http://terminology.hl7.org/CodeSystem/condition-clinical",
          "code": "active"
        } ]
      },
      "verificationStatus": {
        "coding": [ {
          "system": "http://terminology.hl7.org/CodeSystem/condition-ver-status",
          "code": "confirmed"
        } ]
      },
      "category": [ {
        "coding": [ {
          "system": "http://terminology.hl7.org/CodeSystem/condition-category",
          "code": "encounter-diagnosis",
          "display": "Encounter Diagnosis"
        } ]
      } ],
      "code": {
        "coding": [ {
          "system": "http://snomed.info/sct",
          "version": "2020-09",
          "code": "195155004",
          "display": "Subarachnoid hemorrhage from carotid siphon and bifurcation (disorder)",
          "userSelected": true
        } ]
      },
      "subject": {
        "reference": "Patient/003b2da3-b46a-4b24-91be-65ef27eef3bc"
      },
      "recordedDate": "2025-07-15T08:00:00.000+00:00"
    },
    "request": {
      "method": "PUT",
      "url": "Condition/hemorrhagic-stroke-7d4b"
    }
  }, {
    "fullUrl": "https://madie.cms.gov/Coverage/5f6e096c1c76ba4465f5570b",
    "resource": {
      "resourceType": "Coverage",
      "id": "5f6e096c1c76ba4465f5570b",
      "meta": {
        "profile": [ "http://hl7.org/fhir/us/qicore/StructureDefinition/qicore-coverage" ]
      },
      "status": "active",
      "type": {
        "coding": [ {
          "system": "https://nahdo.org/sopt",
          "code": "1",
          "display": "MEDICARE"
        } ]
      },
      "beneficiary": {
        "reference": "Patient/003b2da3-b46a-4b24-91be-65ef27eef3bc"
      },
      "period": {
        "start": "2015-01-01T08:00:00.000+00:00"
      },
      "payor": [ {
        "reference": "Organization/Org-123456"
      } ]
    },
    "request": {
      "method": "PUT",
      "url": "Coverage/5f6e096c1c76ba4465f5570b"
    }
  }, {
    "fullUrl": "https://madie.cms.gov/Organization/123456",
    "resource": {
      "resourceType": "Organization",
      "id": "Org-123456",
      "meta": {
        "profile": [ "http://hl7.org/fhir/us/qicore/StructureDefinition/qicore-organization" ]
      },
      "identifier": [ {
        "use": "temp",
        "system": "urn:oid:2.16.840.1.113883.4.4",
        "value": "21-3259825"
      } ],
      "active": true,
      "type": [ {
        "coding": [ {
          "system": "http://terminology.hl7.org/CodeSystem/organization-type",
          "code": "pay",
          "display": "Payer"
        } ]
      } ],
      "name": "Blue Cross Blue Shield of Texas",
      "telecom": [ {
        "system": "phone",
        "value": "(+1) 972-766-6900"
      } ],
      "address": [ {
        "use": "billing",
        "type": "postal",
        "line": [ "P.O. Box 660044" ],
        "city": "Dallas",
        "state": "TX",
        "postalCode": "75266-0044",
        "country": "USA"
      } ]
    },
    "request": {
      "method": "PUT",
      "url": "Organization/Org-123456"
    }
  }, {
    "fullUrl": "https://madie.cms.gov/MeasureReport/1b945ffc-fa26-47c6-be4d-855150c1c8cf",
    "resource": {
      "resourceType": "MeasureReport",
      "id": "1b945ffc-fa26-47c6-be4d-855150c1c8cf",
      "meta": {
        "profile": [ "http://hl7.org/fhir/us/cqfmeasures/StructureDefinition/test-case-cqfm" ]
      },
      "contained": [ {
        "resourceType": "Parameters",
        "id": "e9007e69-1205-449d-8d11-f017d59d7b87-parameters",
        "parameter": [ {
          "name": "subject",
          "valueString": "003b2da3-b46a-4b24-91be-65ef27eef3bc"
        } ]
      } ],
      "extension": [ {
        "url": "http://hl7.org/fhir/us/cqfmeasures/StructureDefinition/cqfm-inputParameters",
        "valueReference": {
          "reference": "#e9007e69-1205-449d-8d11-f017d59d7b87-parameters"
        }
      }, {
        "url": "http://hl7.org/fhir/us/cqfmeasures/StructureDefinition/cqfm-testCaseDescription",
        "valueMarkdown": "Patient is greater than 18 with Non-Elective Inpatient Encounter (LOS 119 days) with principal diagnosis of ischemic stroke ends during MP and is female. \n"
      } ],
      "modifierExtension": [ {
        "url": "http://hl7.org/fhir/us/cqfmeasures/StructureDefinition/cqfm-isTestCase",
        "valueBoolean": true
      } ],
      "status": "complete",
      "type": "individual",
      "measure": "https://madie.cms.gov/Measure/DischargedonAntithromboticTherapyFHIR",
      "period": {
        "start": "2025-01-01",
        "end": "2025-12-31"
      },
      "group": [ {
        "population": [ {
          "code": {
            "coding": [ {
              "system": "http://terminology.hl7.org/CodeSystem/measure-population",
              "code": "initial-population",
              "display": "Initial Population"
            } ]
          },
          "count": 1
        }, {
          "code": {
            "coding": [ {
              "system": "http://terminology.hl7.org/CodeSystem/measure-population",
              "code": "denominator",
              "display": "Denominator"
            } ]
          },
          "count": 0
        }, {
          "code": {
            "coding": [ {
              "system": "http://terminology.hl7.org/CodeSystem/measure-population",
              "code": "denominator-exclusion",
              "display": "Denominator Exclusion"
            } ]
          },
          "count": 0
        }, {
          "code": {
            "coding": [ {
              "system": "http://terminology.hl7.org/CodeSystem/measure-population",
              "code": "numerator",
              "display": "Numerator"
            } ]
          },
          "count": 0
        }, {
          "code": {
            "coding": [ {
              "system": "http://terminology.hl7.org/CodeSystem/measure-population",
              "code": "denominator-exception",
              "display": "Denominator Exception"
            } ]
          },
          "count": 0
        } ]
      } ],
      "evaluatedResource": [ {
        "reference": "Patient/003b2da3-b46a-4b24-91be-65ef27eef3bc"
      }, {
        "reference": "Encounter/5c954112b8484612c37f277f"
      }, {
        "reference": "Condition/hemorrhagic-stroke-7d4b"
      }, {
        "reference": "Coverage/5f6e096c1c76ba4465f5570b"
      }, {
        "reference": "Organization/Org-123456"
      } ]
    },
    "request": {
      "method": "PUT",
      "url": "MeasureReport/1b945ffc-fa26-47c6-be4d-855150c1c8cf"
    }
  } ]
}