{"resourceType":"Bundle","id":"tests-9f18a5c2-e59f-4582-91b5-401a86234284-bundle","type":"transaction","entry":[{"fullUrl":"https://madie.cms.gov/Patient/9f18a5c2-e59f-4582-91b5-401a86234284","resource":{"resourceType":"Patient","id":"9f18a5c2-e59f-4582-91b5-401a86234284","meta":{"profile":["http://hl7.org/fhir/us/qicore/StructureDefinition/qicore-patient"]},"text":{"status":"generated","div":"<div xmlns=\"http://www.w3.org/1999/xhtml\"><div class=\"hapiHeaderText\">CMOdurED_ED&gt;1hrObs&lt;1hrBFEnc <b>DENEXFAIL </b></div><table class=\"hapiPropertyTable\"><tbody><tr><td>Identifier</td><td>2006756a27174f92dee13bbc481e8a65c6ccb0b0b47df780aff7bd6f91c33990</td></tr><tr><td>Date of birth</td><td><span>21 August 1994</span></td></tr></tbody></table></div>"},"extension":[{"url":"http://hl7.org/fhir/us/core/StructureDefinition/us-core-race","extension":[{"url":"ombCategory","valueCoding":{"system":"urn:oid:2.16.840.1.113883.6.238","code":"1002-5","display":"American Indian or Alaska Native","userSelected":true}},{"url":"text","valueString":"American Indian or Alaska Native"}]},{"url":"http://hl7.org/fhir/us/core/StructureDefinition/us-core-ethnicity","extension":[{"url":"ombCategory","valueCoding":{"system":"urn:oid:2.16.840.1.113883.6.238","code":"2135-2","display":"Hispanic or Latino","userSelected":true}},{"url":"text","valueString":"Hispanic or Latino"}]}],"identifier":[{"type":{"coding":[{"system":"http://terminology.hl7.org/CodeSystem/v2-0203","code":"MR"}]},"system":"https://bonnie-fhir.healthit.gov/","value":"6129135002c62a011f2e72bc"}],"active":true,"name":[{"use":"usual","family":"DENEXFail","given":["CMOdurED_ED>1hrObs<1hrBFEnc"]}],"gender":"male","birthDate":"1994-08-21"},"request":{"method":"PUT","url":"Patient/9f18a5c2-e59f-4582-91b5-401a86234284"}},{"fullUrl":"https://madie.cms.gov/Encounter/5c954113b8484612c37f27ff","resource":{"resourceType":"Encounter","id":"5c954113b8484612c37f27ff","meta":{"profile":["http://hl7.org/fhir/us/qicore/StructureDefinition/qicore-encounter"]},"status":"finished","class":{"system":"http://terminology.hl7.org/CodeSystem/v3-ActCode","code":"EMER","display":"emergency","userSelected":true},"type":[{"coding":[{"system":"http://snomed.info/sct","code":"4525004"}]}],"subject":{"reference":"Patient/9f18a5c2-e59f-4582-91b5-401a86234284"},"period":{"start":"2025-10-10T10:28:00.000+00:00","end":"2025-10-10T10:30:00.000+00:00"},"length":{"value":0.0,"unit":"days"}},"request":{"method":"PUT","url":"Encounter/5c954113b8484612c37f27ff"}},{"fullUrl":"https://madie.cms.gov/Encounter/5c954113b8484612c37f2800","resource":{"resourceType":"Encounter","id":"5c954113b8484612c37f2800","meta":{"profile":["http://hl7.org/fhir/us/qicore/StructureDefinition/qicore-encounter"]},"status":"finished","class":{"system":"http://terminology.hl7.org/CodeSystem/v3-ActCode","code":"OBSENC","display":"observation encounter","userSelected":true},"type":[{"coding":[{"system":"http://snomed.info/sct","code":"448851000124103"}]}],"subject":{"reference":"Patient/9f18a5c2-e59f-4582-91b5-401a86234284"},"period":{"start":"2025-10-10T11:31:00.000+00:00","end":"2025-10-10T11:35:00.000+00:00"},"length":{"value":0.0,"unit":"days"}},"request":{"method":"PUT","url":"Encounter/5c954113b8484612c37f2800"}},{"fullUrl":"https://madie.cms.gov/Encounter/5c954113b8484612c37f2801","resource":{"resourceType":"Encounter","id":"5c954113b8484612c37f2801","meta":{"profile":["http://hl7.org/fhir/us/qicore/StructureDefinition/qicore-encounter"]},"status":"finished","class":{"system":"http://terminology.hl7.org/CodeSystem/v3-ActCode","code":"IMP","display":"inpatient encounter","userSelected":true},"type":[{"coding":[{"system":"http://snomed.info/sct","code":"32485007"}]}],"subject":{"reference":"Patient/9f18a5c2-e59f-4582-91b5-401a86234284"},"period":{"start":"2025-10-10T11:36:00.000+00:00","end":"2025-10-12T11:30:00.000+00:00"},"length":{"value":2.0,"unit":"days"},"diagnosis":[{"condition":{"reference":"Condition/ischemic-stroke-2d35"},"use":{"coding":[{"system":"http://snomed.info/sct","code":"111297002","display":"Ischemic Stroke"}]},"rank":1}]},"request":{"method":"PUT","url":"Encounter/5c954113b8484612c37f2801"}},{"fullUrl":"https://madie.cms.gov/ServiceRequest/5c954113b8484612c37f2803","resource":{"resourceType":"ServiceRequest","id":"5c954113b8484612c37f2803","meta":{"profile":["http://hl7.org/fhir/us/qicore/StructureDefinition/qicore-servicerequest"]},"status":"active","intent":"order","code":{"coding":[{"system":"http://snomed.info/sct","code":"133918004"}]},"subject":{"reference":"Patient/9f18a5c2-e59f-4582-91b5-401a86234284"},"authoredOn":"2025-10-10T10:30:00.000+00:00"},"request":{"method":"PUT","url":"ServiceRequest/5c954113b8484612c37f2803"}},{"fullUrl":"https://madie.cms.gov/Condition/ischemic-stroke-2d35","resource":{"resourceType":"Condition","id":"ischemic-stroke-2d35","meta":{"profile":["http://hl7.org/fhir/us/qicore/StructureDefinition/qicore-condition"]},"clinicalStatus":{"coding":[{"system":"http://terminology.hl7.org/CodeSystem/condition-clinical","code":"active"}]},"verificationStatus":{"coding":[{"system":"http://terminology.hl7.org/CodeSystem/condition-ver-status","code":"confirmed"}]},"category":[{"coding":[{"system":"http://terminology.hl7.org/CodeSystem/condition-category","code":"encounter-diagnosis","display":"Encounter Diagnosis"}]}],"code":{"coding":[{"system":"http://snomed.info/sct","version":"2020-09","code":"111297002","display":"Nonparalytic stroke (disorder)","userSelected":true}]},"subject":{"reference":"Patient/9f18a5c2-e59f-4582-91b5-401a86234284"},"recordedDate":"2025-07-14T08:00:00.000+00:00"},"request":{"method":"PUT","url":"Condition/ischemic-stroke-2d35"}},{"fullUrl":"https://madie.cms.gov/Coverage/1","resource":{"resourceType":"Coverage","id":"1","meta":{"profile":["http://hl7.org/fhir/us/qicore/StructureDefinition/qicore-coverage"]},"status":"active","beneficiary":{"reference":"Patient/9f18a5c2-e59f-4582-91b5-401a86234284"},"payor":[{"reference":"Organization/Org-123456"}]},"request":{"method":"PUT","url":"Coverage/Coverage-1"}},{"fullUrl":"https://madie.cms.gov/Organization/123456","resource":{"resourceType":"Organization","id":"Org-123456","meta":{"profile":["http://hl7.org/fhir/us/qicore/StructureDefinition/qicore-organization"]},"identifier":[{"use":"temp","system":"urn:oid:2.16.840.1.113883.4.4","value":"21-3259825"}],"active":true,"type":[{"coding":[{"system":"http://terminology.hl7.org/CodeSystem/organization-type","code":"pay","display":"Payer"}]}],"name":"Blue Cross Blue Shield of Texas","telecom":[{"system":"phone","value":"(+1) 972-766-6900"}],"address":[{"use":"billing","type":"postal","line":["P.O. Box 660044"],"city":"Dallas","state":"TX","postalCode":"75266-0044","country":"USA"}]},"request":{"method":"PUT","url":"Organization/Org-123456"}},{"fullUrl":"https://madie.cms.gov/MeasureReport/322e4400-0eb9-4c3a-b447-cf3ae19ef7bd","resource":{"resourceType":"MeasureReport","id":"322e4400-0eb9-4c3a-b447-cf3ae19ef7bd","meta":{"profile":["http://hl7.org/fhir/us/cqfmeasures/StructureDefinition/test-case-cqfm"]},"contained":[{"resourceType":"Parameters","id":"f99d73e0-deb7-4ebe-ac76-5071a3482e20-parameters","parameter":[{"name":"subject","valueString":"9f18a5c2-e59f-4582-91b5-401a86234284"}]}],"extension":[{"url":"http://hl7.org/fhir/us/cqfmeasures/StructureDefinition/cqfm-inputParameters","valueReference":{"reference":"#f99d73e0-deb7-4ebe-ac76-5071a3482e20-parameters"}},{"url":"http://hl7.org/fhir/us/cqfmeasures/StructureDefinition/cqfm-testCaseDescription","valueMarkdown":"Patient receives CMO during ED. ED ends 61 minute before obs. Obs ends 1 min before inpatient encounter start.Testing day of operator with HospitalizationWithObservation function."}],"modifierExtension":[{"url":"http://hl7.org/fhir/us/cqfmeasures/StructureDefinition/cqfm-isTestCase","valueBoolean":true}],"status":"complete","type":"individual","measure":"https://madie.cms.gov/Measure/DischargedonAntithromboticTherapyFHIR","period":{"start":"2025-01-01","end":"2025-12-31"},"group":[{"population":[{"code":{"coding":[{"system":"http://terminology.hl7.org/CodeSystem/measure-population","code":"initial-population","display":"Initial Population"}]},"count":1},{"code":{"coding":[{"system":"http://terminology.hl7.org/CodeSystem/measure-population","code":"denominator","display":"Denominator"}]},"count":1},{"code":{"coding":[{"system":"http://terminology.hl7.org/CodeSystem/measure-population","code":"denominator-exclusion","display":"Denominator Exclusion"}]},"count":0},{"code":{"coding":[{"system":"http://terminology.hl7.org/CodeSystem/measure-population","code":"numerator","display":"Numerator"}]},"count":0},{"code":{"coding":[{"system":"http://terminology.hl7.org/CodeSystem/measure-population","code":"denominator-exception","display":"Denominator Exception"}]},"count":0}]}],"evaluatedResource":[{"reference":"Patient/9f18a5c2-e59f-4582-91b5-401a86234284"},{"reference":"Encounter/5c954113b8484612c37f27ff"},{"reference":"Encounter/5c954113b8484612c37f2800"},{"reference":"Encounter/5c954113b8484612c37f2801"},{"reference":"ServiceRequest/5c954113b8484612c37f2803"},{"reference":"Condition/ischemic-stroke-2d35"},{"reference":"Coverage/Coverage-1"},{"reference":"Organization/Org-123456"}]},"request":{"method":"PUT","url":"MeasureReport/322e4400-0eb9-4c3a-b447-cf3ae19ef7bd"}}]}