{"resourceType":"Bundle","id":"tests-9f18a5c2-e59f-4582-91b5-401a86234284-bundle","type":"transaction","entry":[{"fullUrl":"https://madie.cms.gov/Patient/9f18a5c2-e59f-4582-91b5-401a86234284","resource":{"resourceType":"Patient","id":"9f18a5c2-e59f-4582-91b5-401a86234284","meta":{"profile":["http://hl7.org/fhir/us/qicore/StructureDefinition/qicore-patient"]},"text":{"status":"generated","div":"<div xmlns=\"http://www.w3.org/1999/xhtml\"><div class=\"hapiHeaderText\">CMOdurED_ED&gt;1hrObs&lt;1hrBFEnc <b>DENEXFAIL </b></div><table class=\"hapiPropertyTable\"><tbody><tr><td>Identifier</td><td>2006756a27174f92dee13bbc481e8a65c6ccb0b0b47df780aff7bd6f91c33990</td></tr><tr><td>Date of birth</td><td><span>21 August 1994</span></td></tr></tbody></table></div>"},"extension":[{"url":"http://hl7.org/fhir/us/core/StructureDefinition/us-core-race","extension":[{"url":"ombCategory","valueCoding":{"system":"urn:oid:2.16.840.1.113883.6.238","code":"1002-5","display":"American Indian or Alaska Native","userSelected":true}},{"url":"text","valueString":"American Indian or Alaska Native"}]},{"url":"http://hl7.org/fhir/us/core/StructureDefinition/us-core-ethnicity","extension":[{"url":"ombCategory","valueCoding":{"system":"urn:oid:2.16.840.1.113883.6.238","code":"2135-2","display":"Hispanic or Latino","userSelected":true}},{"url":"text","valueString":"Hispanic or Latino"}]}],"identifier":[{"type":{"coding":[{"system":"http://terminology.hl7.org/CodeSystem/v2-0203","code":"MR"}]},"system":"https://bonnie-fhir.healthit.gov/","value":"6129135002c62a011f2e72bc"}],"active":true,"name":[{"use":"usual","family":"DENEXFail","given":["CMOdurED_ED>1hrObs<1hrBFEnc"]}],"gender":"male","birthDate":"1994-08-21"},"request":{"method":"PUT","url":"Patient/9f18a5c2-e59f-4582-91b5-401a86234284"}},{"fullUrl":"https://madie.cms.gov/Encounter/5c954113b8484612c37f27ff","resource":{"resourceType":"Encounter","id":"56516f18-2b99-4548-a004-3dff17bde097","meta":{"profile":["http://hl7.org/fhir/us/qicore/StructureDefinition/qicore-encounter"]},"status":"finished","class":{"system":"http://terminology.hl7.org/CodeSystem/v3-ActCode","code":"EMER","display":"emergency","userSelected":true},"type":[{"coding":[{"system":"http://snomed.info/sct","code":"4525004"}]}],"subject":{"reference":"Patient/9f18a5c2-e59f-4582-91b5-401a86234284"},"period":{"start":"2025-10-10T10:28:00.000+00:00","end":"2025-10-10T10:30:00.000+00:00"},"length":{"value":0,"unit":"days"}},"request":{"method":"PUT","url":"Encounter/56516f18-2b99-4548-a004-3dff17bde097"}},{"fullUrl":"https://madie.cms.gov/Encounter/5c954113b8484612c37f2800","resource":{"resourceType":"Encounter","id":"3caca9bf-5efd-4b31-b44f-e10d45144dfe","meta":{"profile":["http://hl7.org/fhir/us/qicore/StructureDefinition/qicore-encounter"]},"status":"finished","class":{"system":"http://terminology.hl7.org/CodeSystem/v3-ActCode","code":"OBSENC","display":"observation encounter","userSelected":true},"type":[{"coding":[{"system":"http://snomed.info/sct","code":"448851000124103"}]}],"subject":{"reference":"Patient/9f18a5c2-e59f-4582-91b5-401a86234284"},"period":{"start":"2025-10-10T11:31:00.000+00:00","end":"2025-10-10T11:35:00.000+00:00"},"length":{"value":0,"unit":"days"}},"request":{"method":"PUT","url":"Encounter/3caca9bf-5efd-4b31-b44f-e10d45144dfe"}},{"fullUrl":"https://madie.cms.gov/Encounter/5c954113b8484612c37f2801","resource":{"resourceType":"Encounter","id":"5818a59e-b55c-46c8-8fed-3150c5acfbae","meta":{"profile":["http://hl7.org/fhir/us/qicore/StructureDefinition/qicore-encounter"]},"status":"finished","class":{"system":"http://terminology.hl7.org/CodeSystem/v3-ActCode","code":"IMP","display":"inpatient encounter","userSelected":true},"type":[{"coding":[{"system":"http://snomed.info/sct","code":"32485007"}]}],"subject":{"reference":"Patient/9f18a5c2-e59f-4582-91b5-401a86234284"},"period":{"start":"2025-10-10T11:36:00.000+00:00","end":"2025-10-12T11:30:00.000+00:00"},"length":{"value":2,"unit":"days"},"diagnosis":[{"condition":{"reference":"Condition/ischemic-stroke-2d35"},"use":{"coding":[{"system":"http://terminology.hl7.org/CodeSystem/diagnosis-role","code":"billing","display":"Billing"}]},"rank":1}]},"request":{"method":"PUT","url":"Encounter/5818a59e-b55c-46c8-8fed-3150c5acfbae"}},{"fullUrl":"https://madie.cms.gov/ServiceRequest/5c954113b8484612c37f2803","resource":{"resourceType":"ServiceRequest","id":"03104c3d-3b9d-4c00-a5d5-fa7270bbf9fc","meta":{"profile":["http://hl7.org/fhir/us/qicore/StructureDefinition/qicore-servicerequest"]},"status":"active","intent":"order","code":{"coding":[{"system":"http://snomed.info/sct","code":"133918004"}]},"subject":{"reference":"Patient/9f18a5c2-e59f-4582-91b5-401a86234284"},"authoredOn":"2025-10-10T10:30:00.000+00:00"},"request":{"method":"PUT","url":"ServiceRequest/03104c3d-3b9d-4c00-a5d5-fa7270bbf9fc"}},{"fullUrl":"https://madie.cms.gov/Condition/ischemic-stroke-2d35","resource":{"resourceType":"Condition","id":"8f12dec7-995d-47eb-93d6-34c5b6ccb334","meta":{"profile":["http://hl7.org/fhir/us/qicore/StructureDefinition/qicore-condition"]},"clinicalStatus":{"coding":[{"system":"http://terminology.hl7.org/CodeSystem/condition-clinical","code":"active"}]},"verificationStatus":{"coding":[{"system":"http://terminology.hl7.org/CodeSystem/condition-ver-status","code":"confirmed"}]},"category":[{"coding":[{"system":"http://terminology.hl7.org/CodeSystem/condition-category","code":"encounter-diagnosis","display":"Encounter Diagnosis"}]}],"code":{"coding":[{"system":"http://snomed.info/sct","version":"2020-09","code":"111297002","display":"Nonparalytic stroke (disorder)","userSelected":true}]},"subject":{"reference":"Patient/9f18a5c2-e59f-4582-91b5-401a86234284"},"recordedDate":"2025-07-14T08:00:00.000+00:00"},"request":{"method":"PUT","url":"Condition/8f12dec7-995d-47eb-93d6-34c5b6ccb334"}},{"fullUrl":"https://madie.cms.gov/Coverage/1","resource":{"resourceType":"Coverage","id":"76596050-1e73-49b1-a659-0a6a1b5517f5","meta":{"profile":["http://hl7.org/fhir/us/qicore/StructureDefinition/qicore-coverage"]},"status":"active","beneficiary":{"reference":"Patient/9f18a5c2-e59f-4582-91b5-401a86234284"},"payor":[{"reference":"Organization/3e899f33-84eb-4634-a770-a5a0bd7a80e7"}]},"request":{"method":"PUT","url":"Coverage/76596050-1e73-49b1-a659-0a6a1b5517f5"}},{"fullUrl":"https://madie.cms.gov/Organization/123456","resource":{"resourceType":"Organization","id":"3e899f33-84eb-4634-a770-a5a0bd7a80e7","meta":{"profile":["http://hl7.org/fhir/us/qicore/StructureDefinition/qicore-organization"]},"identifier":[{"use":"temp","system":"urn:oid:2.16.840.1.113883.4.4","value":"21-3259825"}],"active":true,"type":[{"coding":[{"system":"http://terminology.hl7.org/CodeSystem/organization-type","code":"pay","display":"Payer"}]}],"name":"Blue Cross Blue Shield of Texas","telecom":[{"system":"phone","value":"(+1) 972-766-6900"}],"address":[{"use":"billing","type":"postal","line":["P.O. Box 660044"],"city":"Dallas","state":"TX","postalCode":"75266-0044","country":"USA"}]},"request":{"method":"PUT","url":"Organization/3e899f33-84eb-4634-a770-a5a0bd7a80e7"}},{"fullUrl":"https://madie.cms.gov/MeasureReport/7158f3c7-66c9-4b3c-ad14-c4db36991fca","resource":{"resourceType":"MeasureReport","id":"7158f3c7-66c9-4b3c-ad14-c4db36991fca","meta":{"profile":["http://hl7.org/fhir/us/cqfmeasures/StructureDefinition/test-case-cqfm"]},"contained":[{"resourceType":"Parameters","id":"cd3973ba-52ee-469f-92d5-2a12d85f2acb-parameters","parameter":[{"name":"subject","valueString":"9f18a5c2-e59f-4582-91b5-401a86234284"}]}],"extension":[{"url":"http://hl7.org/fhir/us/cqfmeasures/StructureDefinition/cqfm-inputParameters","valueReference":{"reference":"#cd3973ba-52ee-469f-92d5-2a12d85f2acb-parameters"}},{"url":"http://hl7.org/fhir/us/cqfmeasures/StructureDefinition/cqfm-testCaseDescription","valueMarkdown":"Patient receives CMO during ED. ED ends 61 minute before obs. Obs ends 1 min before inpatient encounter start.Testing day of operator with HospitalizationWithObservation function."}],"modifierExtension":[{"url":"http://hl7.org/fhir/us/cqfmeasures/StructureDefinition/cqfm-isTestCase","valueBoolean":true}],"status":"complete","type":"individual","measure":"https://madie.cms.gov/Measure/DischargedonAntithromboticTherapyFHIR","period":{"start":"2025-01-01","end":"2025-12-31"},"group":[{"population":[{"code":{"coding":[{"system":"http://terminology.hl7.org/CodeSystem/measure-population","code":"initial-population","display":"Initial Population"}]},"count":1},{"code":{"coding":[{"system":"http://terminology.hl7.org/CodeSystem/measure-population","code":"denominator","display":"Denominator"}]},"count":1},{"code":{"coding":[{"system":"http://terminology.hl7.org/CodeSystem/measure-population","code":"denominator-exclusion","display":"Denominator Exclusion"}]},"count":0},{"code":{"coding":[{"system":"http://terminology.hl7.org/CodeSystem/measure-population","code":"numerator","display":"Numerator"}]},"count":0},{"code":{"coding":[{"system":"http://terminology.hl7.org/CodeSystem/measure-population","code":"denominator-exception","display":"Denominator Exception"}]},"count":0}]}]},"request":{"method":"PUT","url":"MeasureReport/7158f3c7-66c9-4b3c-ad14-c4db36991fca"}}]}