{"resourceType":"Bundle","id":"tests-87b7df35-0de4-4c6a-a030-8afac02454f2-bundle","type":"transaction","entry":[{"fullUrl":"https://madie.cms.gov/Patient/87b7df35-0de4-4c6a-a030-8afac02454f2","resource":{"resourceType":"Patient","id":"87b7df35-0de4-4c6a-a030-8afac02454f2","meta":{"profile":["http://hl7.org/fhir/us/qicore/StructureDefinition/qicore-patient"]},"text":{"status":"generated","div":"<div xmlns=\"http://www.w3.org/1999/xhtml\"><div class=\"hapiHeaderText\">MedRsnStartTmLTEncInpAdmTm <b>DENEXCEPFAIL </b></div><table class=\"hapiPropertyTable\"><tbody><tr><td>Identifier</td><td>86036eda0fb13939e8f133c12f3aea18</td></tr><tr><td>Date of birth</td><td><span>21 August 1994</span></td></tr></tbody></table></div>"},"extension":[{"url":"http://hl7.org/fhir/us/core/StructureDefinition/us-core-race","extension":[{"url":"ombCategory","valueCoding":{"system":"urn:oid:2.16.840.1.113883.6.238","code":"1002-5","display":"American Indian or Alaska Native","userSelected":true}},{"url":"text","valueString":"American Indian or Alaska Native"}]},{"url":"http://hl7.org/fhir/us/core/StructureDefinition/us-core-ethnicity","extension":[{"url":"ombCategory","valueCoding":{"system":"urn:oid:2.16.840.1.113883.6.238","code":"2135-2","display":"Hispanic or Latino","userSelected":true}},{"url":"text","valueString":"Hispanic or Latino"}]}],"identifier":[{"type":{"coding":[{"system":"http://terminology.hl7.org/CodeSystem/v2-0203","code":"MR"}]},"system":"https://bonnie-fhir.healthit.gov/","value":"6129133102c62a011f2e6499"}],"active":true,"name":[{"use":"usual","family":"DENEXCEPFail","given":["MedRsnStartTmLTEncInpAdmTm"]}],"gender":"male","birthDate":"1994-08-21"},"request":{"method":"PUT","url":"Patient/87b7df35-0de4-4c6a-a030-8afac02454f2"}},{"fullUrl":"https://madie.cms.gov/Encounter/5c954112b8484612c37f2777","resource":{"resourceType":"Encounter","id":"5c954112b8484612c37f2777","meta":{"profile":["http://hl7.org/fhir/us/qicore/StructureDefinition/qicore-encounter"]},"status":"finished","class":{"system":"http://terminology.hl7.org/CodeSystem/v3-ActCode","code":"IMP","display":"inpatient encounter","userSelected":true},"type":[{"coding":[{"system":"http://snomed.info/sct","code":"32485007"}]}],"subject":{"reference":"Patient/87b7df35-0de4-4c6a-a030-8afac02454f2"},"period":{"start":"2025-10-10T09:30:00.000+00:00","end":"2025-10-12T10:30:00.000+00:00"},"length":{"value":2.0,"unit":"days"},"diagnosis":[{"condition":{"reference":"Condition/ischemic-stroke-f75c"},"use":{"coding":[{"system":"http://snomed.info/sct","code":"111297002","display":"Ischemic Stroke"}]},"rank":1}]},"request":{"method":"PUT","url":"Encounter/5c954112b8484612c37f2777"}},{"fullUrl":"https://madie.cms.gov/MedicationRequest/5c954112b8484612c37f2779","resource":{"resourceType":"MedicationRequest","id":"5c954112b8484612c37f2779","meta":{"profile":["http://hl7.org/fhir/us/qicore/StructureDefinition/qicore-mednotrequested"]},"status":"completed","intent":"order","doNotPerform":true,"medicationCodeableConcept":{"coding":[{"system":"http://www.nlm.nih.gov/research/umls/rxnorm","code":"1037045"}]},"subject":{"reference":"Patient/87b7df35-0de4-4c6a-a030-8afac02454f2"},"authoredOn":"2012-10-10T09:29:00+00:00","requester":{"reference":"Practitioner/example"},"reasonCode":[{"coding":[{"system":"http://snomed.info/sct","code":"183932001"}]}]},"request":{"method":"PUT","url":"MedicationRequest/5c954112b8484612c37f2779"}},{"fullUrl":"https://madie.cms.gov/Condition/ischemic-stroke-f75c","resource":{"resourceType":"Condition","id":"ischemic-stroke-f75c","meta":{"profile":["http://hl7.org/fhir/us/qicore/StructureDefinition/qicore-condition"]},"clinicalStatus":{"coding":[{"system":"http://terminology.hl7.org/CodeSystem/condition-clinical","code":"active"}]},"verificationStatus":{"coding":[{"system":"http://terminology.hl7.org/CodeSystem/condition-ver-status","code":"confirmed"}]},"category":[{"coding":[{"system":"http://terminology.hl7.org/CodeSystem/condition-category","code":"encounter-diagnosis","display":"Encounter Diagnosis"}]}],"code":{"coding":[{"system":"http://snomed.info/sct","version":"2020-09","code":"111297002","display":"Nonparalytic stroke (disorder)","userSelected":true}]},"subject":{"reference":"Patient/87b7df35-0de4-4c6a-a030-8afac02454f2"},"recordedDate":"2025-07-13T08:00:00.000+00:00"},"request":{"method":"PUT","url":"Condition/ischemic-stroke-f75c"}},{"fullUrl":"https://madie.cms.gov/Coverage/1","resource":{"resourceType":"Coverage","id":"1","meta":{"profile":["http://hl7.org/fhir/us/qicore/StructureDefinition/qicore-coverage"]},"status":"active","beneficiary":{"reference":"Patient/633c9d020968f8012250fc64"},"period":{"start":"1969-07-31T08:00:00.000Z"},"payor":[{"reference":"Organization/Org-123456"}]},"request":{"method":"PUT","url":"Coverage/Coverage-1"}},{"fullUrl":"https://madie.cms.gov/Organization/123456","resource":{"resourceType":"Organization","id":"Org-123456","meta":{"profile":["http://hl7.org/fhir/us/qicore/StructureDefinition/qicore-organization"]},"identifier":[{"use":"temp","system":"urn:oid:2.16.840.1.113883.4.4","value":"21-3259825"}],"active":true,"type":[{"coding":[{"system":"http://terminology.hl7.org/CodeSystem/organization-type","code":"pay","display":"Payer"}]}],"name":"Blue Cross Blue Shield of Texas","telecom":[{"system":"phone","value":"(+1) 972-766-6900"}],"address":[{"use":"billing","type":"postal","line":["P.O. Box 660044"],"city":"Dallas","state":"TX","postalCode":"75266-0044","country":"USA"}]},"request":{"method":"PUT","url":"Organization/Org-123456"}},{"fullUrl":"https://madie.cms.gov/MeasureReport/f6a817b7-8531-4ce8-8213-06b7dd2411e5","resource":{"resourceType":"MeasureReport","id":"f6a817b7-8531-4ce8-8213-06b7dd2411e5","meta":{"profile":["http://hl7.org/fhir/us/cqfmeasures/StructureDefinition/test-case-cqfm"]},"contained":[{"resourceType":"Parameters","id":"78dddae2-afaa-4ed0-9cf7-75f402e2d91a-parameters","parameter":[{"name":"subject","valueString":"87b7df35-0de4-4c6a-a030-8afac02454f2"}]}],"extension":[{"url":"http://hl7.org/fhir/us/cqfmeasures/StructureDefinition/cqfm-inputParameters","valueReference":{"reference":"#78dddae2-afaa-4ed0-9cf7-75f402e2d91a-parameters"}},{"url":"http://hl7.org/fhir/us/cqfmeasures/StructureDefinition/cqfm-testCaseDescription","valueMarkdown":"Patient does not get antithrombotic medication due to medical reasons before IP encounter. This case tests the timing boundary for den exception criteria. "}],"modifierExtension":[{"url":"http://hl7.org/fhir/us/cqfmeasures/StructureDefinition/cqfm-isTestCase","valueBoolean":true}],"status":"complete","type":"individual","measure":"https://madie.cms.gov/Measure/DischargedonAntithromboticTherapyFHIR","period":{"start":"2025-01-01","end":"2025-12-31"},"group":[{"population":[{"code":{"coding":[{"system":"http://terminology.hl7.org/CodeSystem/measure-population","code":"initial-population","display":"Initial Population"}]},"count":1},{"code":{"coding":[{"system":"http://terminology.hl7.org/CodeSystem/measure-population","code":"denominator","display":"Denominator"}]},"count":1},{"code":{"coding":[{"system":"http://terminology.hl7.org/CodeSystem/measure-population","code":"denominator-exclusion","display":"Denominator Exclusion"}]},"count":0},{"code":{"coding":[{"system":"http://terminology.hl7.org/CodeSystem/measure-population","code":"numerator","display":"Numerator"}]},"count":0},{"code":{"coding":[{"system":"http://terminology.hl7.org/CodeSystem/measure-population","code":"denominator-exception","display":"Denominator Exception"}]},"count":0}]}],"evaluatedResource":[{"reference":"Patient/87b7df35-0de4-4c6a-a030-8afac02454f2"},{"reference":"Encounter/5c954112b8484612c37f2777"},{"reference":"MedicationRequest/5c954112b8484612c37f2779"},{"reference":"Condition/ischemic-stroke-f75c"},{"reference":"Coverage/Coverage-1"},{"reference":"Organization/Org-123456"}]},"request":{"method":"PUT","url":"MeasureReport/f6a817b7-8531-4ce8-8213-06b7dd2411e5"}}]}