{"resourceType":"Bundle","id":"tests-728a543b-9149-4b2a-9e65-3fb41ce3f35b-bundle","type":"transaction","entry":[{"fullUrl":"https://madie.cms.gov/Patient/728a543b-9149-4b2a-9e65-3fb41ce3f35b","resource":{"resourceType":"Patient","id":"728a543b-9149-4b2a-9e65-3fb41ce3f35b","meta":{"profile":["http://hl7.org/fhir/us/qicore/StructureDefinition/qicore-patient"]},"text":{"status":"generated","div":"<div xmlns=\"http://www.w3.org/1999/xhtml\"><div class=\"hapiHeaderText\"> CMOdurDiffEDTestOccur <b>DENEXFail </b></div><table class=\"hapiPropertyTable\"><tbody><tr><td>Identifier</td><td>8ca2b35206ea67637d1637609c7d085ff3b14c20bc19eae5b26464da239a5345</td></tr><tr><td>Date of birth</td><td><span>21 August 1994</span></td></tr></tbody></table></div>"},"extension":[{"url":"http://hl7.org/fhir/us/core/StructureDefinition/us-core-race","extension":[{"url":"ombCategory","valueCoding":{"system":"urn:oid:2.16.840.1.113883.6.238","code":"1002-5","display":"American Indian or Alaska Native","userSelected":true}},{"url":"text","valueString":"American Indian or Alaska Native"}]},{"url":"http://hl7.org/fhir/us/core/StructureDefinition/us-core-ethnicity","extension":[{"url":"ombCategory","valueCoding":{"system":"urn:oid:2.16.840.1.113883.6.238","code":"2135-2","display":"Hispanic or Latino","userSelected":true}},{"url":"text","valueString":"Hispanic or Latino"}]}],"identifier":[{"type":{"coding":[{"system":"http://terminology.hl7.org/CodeSystem/v2-0203","code":"MR"}]},"system":"https://bonnie-fhir.healthit.gov/","value":"6129135502c62a011f2e752c"}],"active":true,"name":[{"use":"usual","family":"DENEXFail","given":[" CMOdurDiffEDTestOccur"]}],"gender":"male","birthDate":"1994-08-21"},"request":{"method":"PUT","url":"Patient/728a543b-9149-4b2a-9e65-3fb41ce3f35b"}},{"fullUrl":"https://madie.cms.gov/Encounter/5ca4cde2b8484613a5552a66","resource":{"resourceType":"Encounter","id":"54958e8e-c26e-4506-887e-57fba8fb2899","meta":{"profile":["http://hl7.org/fhir/us/qicore/StructureDefinition/qicore-encounter"]},"status":"finished","class":{"system":"http://terminology.hl7.org/CodeSystem/v3-ActCode","code":"EMER","display":"emergency","userSelected":true},"type":[{"coding":[{"system":"http://snomed.info/sct","code":"4525004"}]}],"subject":{"reference":"Patient/728a543b-9149-4b2a-9e65-3fb41ce3f35b"},"period":{"start":"2025-10-10T12:31:00.000+00:00","end":"2025-10-10T12:46:00.000+00:00"},"length":{"value":0,"unit":"days"}},"request":{"method":"PUT","url":"Encounter/54958e8e-c26e-4506-887e-57fba8fb2899"}},{"fullUrl":"https://madie.cms.gov/Encounter/5ca4cde2b8484613a5552a67","resource":{"resourceType":"Encounter","id":"80dd6782-389f-4344-8e8a-1fae1c443f5a","meta":{"profile":["http://hl7.org/fhir/us/qicore/StructureDefinition/qicore-encounter"]},"status":"finished","class":{"system":"http://terminology.hl7.org/CodeSystem/v3-ActCode","code":"EMER","display":"emergency","userSelected":true},"type":[{"coding":[{"system":"http://snomed.info/sct","code":"4525004"}]}],"subject":{"reference":"Patient/728a543b-9149-4b2a-9e65-3fb41ce3f35b"},"period":{"start":"2025-10-11T10:30:00.000+00:00","end":"2025-10-11T11:30:00.000+00:00"},"length":{"value":0,"unit":"days"}},"request":{"method":"PUT","url":"Encounter/80dd6782-389f-4344-8e8a-1fae1c443f5a"}},{"fullUrl":"https://madie.cms.gov/Encounter/5ca4cde2b8484613a5552a68","resource":{"resourceType":"Encounter","id":"6949559f-9fe1-4fc0-af85-e74dcd971f46","meta":{"profile":["http://hl7.org/fhir/us/qicore/StructureDefinition/qicore-encounter"]},"status":"finished","class":{"system":"http://terminology.hl7.org/CodeSystem/v3-ActCode","code":"IMP","display":"inpatient encounter","userSelected":true},"type":[{"coding":[{"system":"http://snomed.info/sct","code":"32485007"}]}],"subject":{"reference":"Patient/728a543b-9149-4b2a-9e65-3fb41ce3f35b"},"period":{"start":"2025-10-11T12:30:00.000+00:00","end":"2025-10-13T11:30:00.000+00:00"},"length":{"value":2,"unit":"days"},"diagnosis":[{"condition":{"reference":"Condition/ischemic-stroke-7ef9"},"use":{"coding":[{"system":"http://terminology.hl7.org/CodeSystem/diagnosis-role","code":"billing","display":"Billing"}]},"rank":1}]},"request":{"method":"PUT","url":"Encounter/6949559f-9fe1-4fc0-af85-e74dcd971f46"}},{"fullUrl":"https://madie.cms.gov/ServiceRequest/5ca4cde2b8484613a5552a65","resource":{"resourceType":"ServiceRequest","id":"b8e1e87e-31df-4e9e-8cfe-44911b978232","meta":{"profile":["http://hl7.org/fhir/us/qicore/StructureDefinition/qicore-servicerequest"]},"status":"active","intent":"order","code":{"coding":[{"system":"http://snomed.info/sct","code":"133918004"}]},"subject":{"reference":"Patient/728a543b-9149-4b2a-9e65-3fb41ce3f35b"},"authoredOn":"2025-10-10T12:31:00.000+00:00"},"request":{"method":"PUT","url":"ServiceRequest/b8e1e87e-31df-4e9e-8cfe-44911b978232"}},{"fullUrl":"https://madie.cms.gov/Condition/ischemic-stroke-7ef9","resource":{"resourceType":"Condition","id":"7e89a1cf-c84d-48de-adff-76ebaec3ece5","meta":{"profile":["http://hl7.org/fhir/us/qicore/StructureDefinition/qicore-condition"]},"clinicalStatus":{"coding":[{"system":"http://terminology.hl7.org/CodeSystem/condition-clinical","code":"active"}]},"verificationStatus":{"coding":[{"system":"http://terminology.hl7.org/CodeSystem/condition-ver-status","code":"confirmed"}]},"category":[{"coding":[{"system":"http://terminology.hl7.org/CodeSystem/condition-category","code":"encounter-diagnosis","display":"Encounter Diagnosis"}]}],"code":{"coding":[{"system":"http://snomed.info/sct","version":"2020-09","code":"111297002","display":"Nonparalytic stroke (disorder)","userSelected":true}]},"subject":{"reference":"Patient/728a543b-9149-4b2a-9e65-3fb41ce3f35b"},"recordedDate":"2025-07-14T08:00:00.000+00:00"},"request":{"method":"PUT","url":"Condition/7e89a1cf-c84d-48de-adff-76ebaec3ece5"}},{"fullUrl":"https://madie.cms.gov/Coverage/1","resource":{"resourceType":"Coverage","id":"0e4ead62-c4cf-4d1d-b5e8-45e64f31c16a","meta":{"profile":["http://hl7.org/fhir/us/qicore/StructureDefinition/qicore-coverage"]},"status":"active","beneficiary":{"reference":"Patient/728a543b-9149-4b2a-9e65-3fb41ce3f35b"},"payor":[{"reference":"Organization/77e4d06f-5e3c-436a-a598-80cefcca5028"}]},"request":{"method":"PUT","url":"Coverage/0e4ead62-c4cf-4d1d-b5e8-45e64f31c16a"}},{"fullUrl":"https://madie.cms.gov/Organization/123456","resource":{"resourceType":"Organization","id":"77e4d06f-5e3c-436a-a598-80cefcca5028","meta":{"profile":["http://hl7.org/fhir/us/qicore/StructureDefinition/qicore-organization"]},"identifier":[{"use":"temp","system":"urn:oid:2.16.840.1.113883.4.4","value":"21-3259825"}],"active":true,"type":[{"coding":[{"system":"http://terminology.hl7.org/CodeSystem/organization-type","code":"pay","display":"Payer"}]}],"name":"Blue Cross Blue Shield of Texas","telecom":[{"system":"phone","value":"(+1) 972-766-6900"}],"address":[{"use":"billing","type":"postal","line":["P.O. Box 660044"],"city":"Dallas","state":"TX","postalCode":"75266-0044","country":"USA"}]},"request":{"method":"PUT","url":"Organization/77e4d06f-5e3c-436a-a598-80cefcca5028"}},{"fullUrl":"https://madie.cms.gov/MeasureReport/6879ea27-93a4-4398-878e-c6f05e3d8ccf","resource":{"resourceType":"MeasureReport","id":"6879ea27-93a4-4398-878e-c6f05e3d8ccf","meta":{"profile":["http://hl7.org/fhir/us/cqfmeasures/StructureDefinition/test-case-cqfm"]},"contained":[{"resourceType":"Parameters","id":"969431aa-430e-4d3c-bdac-37bcbf9642c5-parameters","parameter":[{"name":"subject","valueString":"728a543b-9149-4b2a-9e65-3fb41ce3f35b"}]}],"extension":[{"url":"http://hl7.org/fhir/us/cqfmeasures/StructureDefinition/cqfm-inputParameters","valueReference":{"reference":"#969431aa-430e-4d3c-bdac-37bcbf9642c5-parameters"}},{"url":"http://hl7.org/fhir/us/cqfmeasures/StructureDefinition/cqfm-testCaseDescription","valueMarkdown":"Patient receives CMO during a different ED encounter.  Testing multiple  Encounter."}],"modifierExtension":[{"url":"http://hl7.org/fhir/us/cqfmeasures/StructureDefinition/cqfm-isTestCase","valueBoolean":true}],"status":"complete","type":"individual","measure":"https://madie.cms.gov/Measure/DischargedonAntithromboticTherapyFHIR","period":{"start":"2025-01-01","end":"2025-12-31"},"group":[{"population":[{"code":{"coding":[{"system":"http://terminology.hl7.org/CodeSystem/measure-population","code":"initial-population","display":"Initial Population"}]},"count":1},{"code":{"coding":[{"system":"http://terminology.hl7.org/CodeSystem/measure-population","code":"denominator","display":"Denominator"}]},"count":1},{"code":{"coding":[{"system":"http://terminology.hl7.org/CodeSystem/measure-population","code":"denominator-exclusion","display":"Denominator Exclusion"}]},"count":0},{"code":{"coding":[{"system":"http://terminology.hl7.org/CodeSystem/measure-population","code":"numerator","display":"Numerator"}]},"count":0},{"code":{"coding":[{"system":"http://terminology.hl7.org/CodeSystem/measure-population","code":"denominator-exception","display":"Denominator Exception"}]},"count":0}]}]},"request":{"method":"PUT","url":"MeasureReport/6879ea27-93a4-4398-878e-c6f05e3d8ccf"}}]}