{"resourceType":"Bundle","id":"tests-ed5ae1dd-5a2e-4b69-9044-1f4cbed2fcfc-bundle","type":"transaction","entry":[{"fullUrl":"https://madie.cms.gov/Patient/ed5ae1dd-5a2e-4b69-9044-1f4cbed2fcfc","resource":{"resourceType":"Patient","id":"ed5ae1dd-5a2e-4b69-9044-1f4cbed2fcfc","meta":{"profile":["http://hl7.org/fhir/us/qicore/StructureDefinition/qicore-patient"]},"text":{"status":"generated","div":"<div xmlns=\"http://www.w3.org/1999/xhtml\"><div class=\"hapiHeaderText\">MedRsnStartTmGTEncInpDischTm <b>DENEXCEPFAIL </b></div><table class=\"hapiPropertyTable\"><tbody><tr><td>Identifier</td><td>90beff5aa027ec8e827c5b3d5ad023ef</td></tr><tr><td>Date of birth</td><td><span>21 August 1994</span></td></tr></tbody></table></div>"},"extension":[{"url":"http://hl7.org/fhir/us/core/StructureDefinition/us-core-race","extension":[{"url":"ombCategory","valueCoding":{"system":"urn:oid:2.16.840.1.113883.6.238","code":"1002-5","display":"American Indian or Alaska Native","userSelected":true}},{"url":"text","valueString":"American Indian or Alaska Native"}]},{"url":"http://hl7.org/fhir/us/core/StructureDefinition/us-core-ethnicity","extension":[{"url":"ombCategory","valueCoding":{"system":"urn:oid:2.16.840.1.113883.6.238","code":"2135-2","display":"Hispanic or Latino","userSelected":true}},{"url":"text","valueString":"Hispanic or Latino"}]}],"identifier":[{"type":{"coding":[{"system":"http://terminology.hl7.org/CodeSystem/v2-0203","code":"MR"}]},"system":"https://bonnie-fhir.healthit.gov/","value":"DENEXCEPFailMedRsnStartTmGTEncInpDischTm"}],"active":true,"name":[{"use":"usual","family":"DENEXCEPFail","given":["MedRsnStartTmGTEncInpDischTm"]}],"gender":"male","birthDate":"2003-08-21"},"request":{"method":"PUT","url":"Patient/ed5ae1dd-5a2e-4b69-9044-1f4cbed2fcfc"}},{"fullUrl":"https://madie.cms.gov/Encounter/5c954112b8484612c37f277a","resource":{"resourceType":"Encounter","id":"5c954112b8484612c37f277a","meta":{"profile":["http://hl7.org/fhir/us/qicore/StructureDefinition/qicore-encounter"]},"status":"finished","class":{"system":"http://terminology.hl7.org/CodeSystem/v3-ActCode","code":"IMP","display":"inpatient encounter","userSelected":true},"type":[{"coding":[{"system":"http://snomed.info/sct","code":"32485007"}]}],"subject":{"reference":"Patient/ed5ae1dd-5a2e-4b69-9044-1f4cbed2fcfc"},"period":{"start":"2025-10-10T09:30:00.000+00:00","end":"2025-10-12T10:30:00.000+00:00"},"length":{"value":2.0,"unit":"days"},"diagnosis":[{"condition":{"reference":"Condition/ischemic-stroke-f75b"},"use":{"coding":[{"system":"http://snomed.info/sct","code":"111297002","display":"Ischemic Stroke"}]},"rank":1}]},"request":{"method":"PUT","url":"Encounter/5c954112b8484612c37f277a"}},{"fullUrl":"https://madie.cms.gov/MedicationRequest/5c954112b8484612c37f277c","resource":{"resourceType":"MedicationRequest","id":"5c954112b8484612c37f277c","meta":{"profile":["http://hl7.org/fhir/us/qicore/StructureDefinition/qicore-mednotrequested"]},"status":"completed","intent":"order","doNotPerform":true,"medicationCodeableConcept":{"coding":[{"system":"http://www.nlm.nih.gov/research/umls/rxnorm","code":"1037045"}]},"subject":{"reference":"Patient/ed5ae1dd-5a2e-4b69-9044-1f4cbed2fcfc"},"authoredOn":"2025-10-12T10:31:00+00:00","requester":{"reference":"Practitioner/example"},"reasonCode":[{"coding":[{"system":"http://snomed.info/sct","code":"183932001"}]}]},"request":{"method":"PUT","url":"MedicationRequest/5c954112b8484612c37f277c"}},{"fullUrl":"https://madie.cms.gov/Condition/ischemic-stroke-f75b","resource":{"resourceType":"Condition","id":"ischemic-stroke-f75b","meta":{"profile":["http://hl7.org/fhir/us/qicore/StructureDefinition/qicore-condition"]},"clinicalStatus":{"coding":[{"system":"http://terminology.hl7.org/CodeSystem/condition-clinical","code":"active"}]},"verificationStatus":{"coding":[{"system":"http://terminology.hl7.org/CodeSystem/condition-ver-status","code":"confirmed"}]},"category":[{"coding":[{"system":"http://terminology.hl7.org/CodeSystem/condition-category","code":"encounter-diagnosis","display":"Encounter Diagnosis"}]}],"code":{"coding":[{"system":"http://snomed.info/sct","version":"2020-09","code":"111297002","display":"Nonparalytic stroke (disorder)","userSelected":true}]},"subject":{"reference":"Patient/ed5ae1dd-5a2e-4b69-9044-1f4cbed2fcfc"},"recordedDate":"2025-07-13T08:00:00.000+00:00"},"request":{"method":"PUT","url":"Condition/ischemic-stroke-f75b"}},{"fullUrl":"https://madie.cms.gov/Coverage/1","resource":{"resourceType":"Coverage","id":"1","meta":{"profile":["http://hl7.org/fhir/us/qicore/StructureDefinition/qicore-coverage"]},"status":"active","type":{"coding":[{"system":"https://nahdo.org/sopt","code":"1","display":"MEDICARE"}]},"beneficiary":{"reference":"Patient/ed5ae1dd-5a2e-4b69-9044-1f4cbed2fcfc"},"payor":[{"reference":"Organization/Org-123456"}]},"request":{"method":"PUT","url":"Coverage/Coverage-1"}},{"fullUrl":"https://madie.cms.gov/Organization/123456","resource":{"resourceType":"Organization","id":"Org-123456","meta":{"profile":["http://hl7.org/fhir/us/qicore/StructureDefinition/qicore-organization"]},"identifier":[{"use":"temp","system":"urn:oid:2.16.840.1.113883.4.4","value":"21-3259825"}],"active":true,"type":[{"coding":[{"system":"http://terminology.hl7.org/CodeSystem/organization-type","code":"pay","display":"Payer"}]}],"name":"Blue Cross Blue Shield of Texas","telecom":[{"system":"phone","value":"(+1) 972-766-6900"}],"address":[{"use":"billing","type":"postal","line":["P.O. Box 660044"],"city":"Dallas","state":"TX","postalCode":"75266-0044","country":"USA"}]},"request":{"method":"PUT","url":"Organization/Org-123456"}},{"fullUrl":"https://madie.cms.gov/MeasureReport/f975df33-53a3-4e5a-96a5-53e8c61ad8ef","resource":{"resourceType":"MeasureReport","id":"f975df33-53a3-4e5a-96a5-53e8c61ad8ef","meta":{"profile":["http://hl7.org/fhir/us/cqfmeasures/StructureDefinition/test-case-cqfm"]},"contained":[{"resourceType":"Parameters","id":"9179915e-a42d-4123-92b5-b1aa7e047bdc-parameters","parameter":[{"name":"subject","valueString":"ed5ae1dd-5a2e-4b69-9044-1f4cbed2fcfc"}]}],"extension":[{"url":"http://hl7.org/fhir/us/cqfmeasures/StructureDefinition/cqfm-inputParameters","valueReference":{"reference":"#9179915e-a42d-4123-92b5-b1aa7e047bdc-parameters"}},{"url":"http://hl7.org/fhir/us/cqfmeasures/StructureDefinition/cqfm-testCaseDescription","valueMarkdown":"Patient does not get antithrombotic medication due to medical reasons after IP encounter. This case tests the timing boundary for den exception criteria. "}],"modifierExtension":[{"url":"http://hl7.org/fhir/us/cqfmeasures/StructureDefinition/cqfm-isTestCase","valueBoolean":true}],"status":"complete","type":"individual","measure":"https://madie.cms.gov/Measure/DischargedonAntithromboticTherapyFHIR","period":{"start":"2025-01-01","end":"2025-12-31"},"group":[{"population":[{"code":{"coding":[{"system":"http://terminology.hl7.org/CodeSystem/measure-population","code":"initial-population","display":"Initial Population"}]},"count":1},{"code":{"coding":[{"system":"http://terminology.hl7.org/CodeSystem/measure-population","code":"denominator","display":"Denominator"}]},"count":1},{"code":{"coding":[{"system":"http://terminology.hl7.org/CodeSystem/measure-population","code":"denominator-exclusion","display":"Denominator Exclusion"}]},"count":0},{"code":{"coding":[{"system":"http://terminology.hl7.org/CodeSystem/measure-population","code":"numerator","display":"Numerator"}]},"count":0},{"code":{"coding":[{"system":"http://terminology.hl7.org/CodeSystem/measure-population","code":"denominator-exception","display":"Denominator Exception"}]},"count":0}]}],"evaluatedResource":[{"reference":"Patient/ed5ae1dd-5a2e-4b69-9044-1f4cbed2fcfc"},{"reference":"Encounter/5c954112b8484612c37f277a"},{"reference":"MedicationRequest/5c954112b8484612c37f277c"},{"reference":"Condition/ischemic-stroke-f75b"},{"reference":"Coverage/Coverage-1"},{"reference":"Organization/Org-123456"}]},"request":{"method":"PUT","url":"MeasureReport/f975df33-53a3-4e5a-96a5-53e8c61ad8ef"}}]}