{"resourceType":"Bundle","id":"tests-1de546d8-e39f-4d9f-b606-d3be3a24b3be-bundle","type":"transaction","entry":[{"fullUrl":"https://madie.cms.gov/Patient/1de546d8-e39f-4d9f-b606-d3be3a24b3be","resource":{"resourceType":"Patient","id":"1de546d8-e39f-4d9f-b606-d3be3a24b3be","meta":{"profile":["http://hl7.org/fhir/us/qicore/StructureDefinition/qicore-patient"]},"text":{"status":"generated","div":"<div xmlns=\"http://www.w3.org/1999/xhtml\"><div class=\"hapiHeaderText\">Naloxone 12Hrs + 1 minute After Opioid <b>NUMERFAIL </b></div><table class=\"hapiPropertyTable\"><tbody><tr><td>Date of birth</td><td><span>12 December 1960</span></td></tr></tbody></table></div>"},"extension":[{"url":"http://hl7.org/fhir/us/core/StructureDefinition/us-core-race","extension":[{"url":"ombCategory","valueCoding":{"system":"urn:oid:2.16.840.1.113883.6.238","code":"1002-5","display":"American Indian or Alaska Native","userSelected":true}},{"url":"text","valueString":"American Indian or Alaska Native"}]},{"url":"http://hl7.org/fhir/us/core/StructureDefinition/us-core-ethnicity","extension":[{"url":"ombCategory","valueCoding":{"system":"urn:oid:2.16.840.1.113883.6.238","code":"2135-2","display":"Hispanic or Latino","userSelected":true}},{"url":"text","valueString":"Hispanic or Latino"}]}],"identifier":[{"type":{"coding":[{"system":"http://terminology.hl7.org/CodeSystem/v2-0203","code":"MR"}]},"system":"https://bonnie-fhir.healthit.gov/","value":"627a80a15a0d870123c72539"}],"active":true,"name":[{"use":"usual","family":"NUMERFail","given":["Antagonist12Hrs1MinuteAfterOpioid"]}],"gender":"female","birthDate":"1960-12-12"},"request":{"method":"PUT","url":"Patient/1de546d8-e39f-4d9f-b606-d3be3a24b3be"}},{"fullUrl":"https://madie.cms.gov/Encounter/5e8cccc8931f9c0000abd5b9","resource":{"resourceType":"Encounter","id":"5e8cccc8931f9c0000abd5b9","meta":{"profile":["http://hl7.org/fhir/us/qicore/StructureDefinition/qicore-encounter"]},"status":"finished","class":{"system":"http://terminology.hl7.org/CodeSystem/v3-ActCode","code":"IMP","display":"inpatient encounter"},"type":[{"coding":[{"system":"http://snomed.info/sct","code":"183452005"}]}],"subject":{"reference":"Patient/1de546d8-e39f-4d9f-b606-d3be3a24b3be"},"period":{"start":"2025-04-07T08:00:00.000Z","end":"2025-04-09T08:15:00.000Z"}},"request":{"method":"PUT","url":"Encounter/5e8cccc8931f9c0000abd5b9"}},{"fullUrl":"https://madie.cms.gov/MedicationAdministration/5e8ccccf931f9c0000abd5c4","resource":{"resourceType":"MedicationAdministration","id":"5e8ccccf931f9c0000abd5c4","meta":{"profile":["http://hl7.org/fhir/us/qicore/StructureDefinition/qicore-medicationadministration"]},"status":"completed","medicationCodeableConcept":{"coding":[{"system":"http://www.nlm.nih.gov/research/umls/rxnorm","code":"1010600"}]},"subject":{"reference":"Patient/1de546d8-e39f-4d9f-b606-d3be3a24b3be"},"effectivePeriod":{"start":"2025-04-07T08:00:00.000Z","end":"2025-04-07T08:15:00.000Z"}},"request":{"method":"PUT","url":"MedicationAdministration/5e8ccccf931f9c0000abd5c4"}},{"fullUrl":"https://madie.cms.gov/MedicationAdministration/5e8ccd85931f9c0000abd642","resource":{"resourceType":"MedicationAdministration","id":"5e8ccd85931f9c0000abd642","meta":{"profile":["http://hl7.org/fhir/us/qicore/StructureDefinition/qicore-medicationadministration"]},"status":"completed","medicationCodeableConcept":{"coding":[{"system":"http://www.nlm.nih.gov/research/umls/rxnorm","version":"2023-01","code":"2592953","display":"2 ML nalmefene 1 MG/ML Injection","userSelected":true}]},"subject":{"reference":"Patient/1de546d8-e39f-4d9f-b606-d3be3a24b3be"},"effectiveDateTime":"2025-04-07T20:16:00.000+00:00","dosage":{"route":{"coding":[{"system":"http://snomed.info/sct","code":"34206005","display":"Subcutaneous route (qualifier value)","userSelected":true}]},"dose":{"value":2,"unit":"mg","system":"http://unitsofmeasure.org","code":"mg"}}},"request":{"method":"PUT","url":"MedicationAdministration/5e8ccd85931f9c0000abd642"}},{"fullUrl":"https://madie.cms.gov/MeasureReport/0f67944b-194c-46fa-99ba-e320eef159be","resource":{"resourceType":"MeasureReport","id":"0f67944b-194c-46fa-99ba-e320eef159be","meta":{"profile":["http://hl7.org/fhir/us/cqfmeasures/StructureDefinition/test-case-cqfm"]},"contained":[{"resourceType":"Parameters","id":"07db30f7-f5b8-4c2b-bfd3-d4917e8f64a2-parameters","parameter":[{"name":"subject","valueString":"1de546d8-e39f-4d9f-b606-d3be3a24b3be"}]}],"extension":[{"url":"http://hl7.org/fhir/us/cqfmeasures/StructureDefinition/cqfm-inputParameters","valueReference":{"reference":"#07db30f7-f5b8-4c2b-bfd3-d4917e8f64a2-parameters"}},{"url":"http://hl7.org/fhir/us/cqfmeasures/StructureDefinition/cqfm-testCaseDescription","valueMarkdown":"Inpatient encounter. Opioid given during encounter. Antagonist given exactly 12hrs + 1 minute after Opioid ends. Must be given within 12 hours or less. Numerator fails."}],"modifierExtension":[{"url":"http://hl7.org/fhir/us/cqfmeasures/StructureDefinition/cqfm-isTestCase","valueBoolean":true}],"status":"complete","type":"individual","measure":"https://madie.cms.gov/Measure/HospitalHarmOpioidRelatedAdverseEventsFHIR","period":{"start":"2025-01-01","end":"2025-12-31"},"group":[{"population":[{"code":{"coding":[{"system":"http://terminology.hl7.org/CodeSystem/measure-population","code":"initial-population","display":"Initial Population"}]},"count":1},{"code":{"coding":[{"system":"http://terminology.hl7.org/CodeSystem/measure-population","code":"denominator","display":"Denominator"}]},"count":1},{"code":{"coding":[{"system":"http://terminology.hl7.org/CodeSystem/measure-population","code":"numerator","display":"Numerator"}]},"count":0}]}],"evaluatedResource":[{"reference":"Patient/1de546d8-e39f-4d9f-b606-d3be3a24b3be"},{"reference":"Encounter/5e8cccc8931f9c0000abd5b9"},{"reference":"MedicationAdministration/5e8ccccf931f9c0000abd5c4"},{"reference":"MedicationAdministration/5e8ccd85931f9c0000abd642"}]},"request":{"method":"PUT","url":"MeasureReport/0f67944b-194c-46fa-99ba-e320eef159be"}}]}