{
  "resourceType": "Bundle",
  "id": "98941351648165115656",
  "type": "transaction",
  "entry": [ {
    "fullUrl": "https://madie.cms.gov/Patient/a994dd9f-d7b0-441d-8358-1287d75836de",
    "resource": {
      "resourceType": "Patient",
      "id": "a994dd9f-d7b0-441d-8358-1287d75836de",
      "meta": {
        "profile": [ "http://hl7.org/fhir/us/qicore/StructureDefinition/qicore-patient" ]
      },
      "extension": [ {
        "url": "http://hl7.org/fhir/us/core/StructureDefinition/us-core-race",
        "extension": [ {
          "url": "ombCategory",
          "valueCoding": {
            "system": "urn:oid:2.16.840.1.113883.6.238",
            "code": "1002-5",
            "display": "American Indian or Alaska Native"
          }
        }, {
          "url": "text",
          "valueString": "American Indian or Alaska Native"
        } ]
      }, {
        "url": "http://hl7.org/fhir/us/core/StructureDefinition/us-core-ethnicity",
        "extension": [ {
          "url": "ombCategory",
          "valueCoding": {
            "system": "urn:oid:2.16.840.1.113883.6.238",
            "code": "2186-5",
            "display": "Not Hispanic or Latino"
          }
        }, {
          "url": "text",
          "valueString": "Not Hispanic or Latino"
        } ]
      } ],
      "identifier": [ {
        "type": {
          "coding": [ {
            "system": "http://terminology.hl7.org/CodeSystem/v2-0203",
            "code": "MR"
          } ]
        },
        "system": "https://bonnie-fhir.healthit.gov/",
        "value": "16586168461616"
      } ],
      "active": true,
      "name": [ {
        "use": "usual",
        "family": "DENEXCEPPop2Pass",
        "given": [ "Bradycardia" ]
      } ],
      "gender": "female",
      "birthDate": "1946-03-24"
    },
    "request": {
      "method": "POST",
      "url": "Patient/a994dd9f-d7b0-441d-8358-1287d75836de"
    }
  }, {
    "fullUrl": "https://madie.cms.gov/Encounter/1648941616451631631",
    "resource": {
      "resourceType": "Encounter",
      "id": "1648941616451631631",
      "meta": {
        "profile": [ "http://hl7.org/fhir/us/qicore/StructureDefinition/qicore-encounter" ]
      },
      "status": "finished",
      "class": {
        "system": "http://terminology.hl7.org/CodeSystem/v3-ActCode",
        "code": "AMB",
        "display": "ambulatory encounter"
      },
      "type": [ {
        "coding": [ {
          "system": "http://www.ama-assn.org/go/cpt",
          "version": "2024",
          "code": "99205"
        } ]
      } ],
      "subject": {
        "reference": "Patient/a994dd9f-d7b0-441d-8358-1287d75836de"
      },
      "period": {
        "start": "2025-04-05T06:00:00+00:00",
        "end": "2025-04-05T07:00:00+00:00"
      }
    },
    "request": {
      "method": "POST",
      "url": "Encounter/1648941616451631631"
    }
  }, {
    "fullUrl": "https://madie.cms.gov/Encounter/681684641684616315",
    "resource": {
      "resourceType": "Encounter",
      "id": "681684641684616315",
      "meta": {
        "profile": [ "http://hl7.org/fhir/us/qicore/StructureDefinition/qicore-encounter" ]
      },
      "status": "finished",
      "class": {
        "system": "http://terminology.hl7.org/CodeSystem/v3-ActCode",
        "code": "AMB",
        "display": "ambulatory encounter"
      },
      "type": [ {
        "coding": [ {
          "system": "http://www.ama-assn.org/go/cpt",
          "version": "2024",
          "code": "99205"
        } ]
      } ],
      "subject": {
        "reference": "Patient/a994dd9f-d7b0-441d-8358-1287d75836de"
      },
      "period": {
        "start": "2025-07-08T09:00:00+00:00",
        "end": "2025-07-08T09:00:00+00:00"
      }
    },
    "request": {
      "method": "POST",
      "url": "Encounter/681684641684616315"
    }
  }, {
    "fullUrl": "https://madie.cms.gov/Condition/4641664616316151",
    "resource": {
      "resourceType": "Condition",
      "id": "4641664616316151",
      "meta": {
        "profile": [ "http://hl7.org/fhir/us/qicore/StructureDefinition/qicore-condition" ]
      },
      "clinicalStatus": {
        "coding": [ {
          "system": "http://terminology.hl7.org/CodeSystem/condition-clinical",
          "code": "active",
          "display": "Active"
        } ]
      },
      "verificationStatus": {
        "coding": [ {
          "system": "http://terminology.hl7.org/CodeSystem/condition-ver-status",
          "code": "confirmed",
          "display": "Confirmed"
        } ]
      },
      "category": [ {
        "coding": [ {
          "system": "http://terminology.hl7.org/CodeSystem/condition-category",
          "code": "problem-list-item",
          "display": "Problem List Item"
        } ]
      } ],
      "code": {
        "coding": [ {
          "system": "http://hl7.org/fhir/sid/icd-10-cm",
          "version": "2024",
          "code": "I21.01"
        } ]
      },
      "subject": {
        "reference": "Patient/a994dd9f-d7b0-441d-8358-1287d75836de"
      },
      "onsetPeriod": {
        "start": "2022-11-22T07:30:00+00:00",
        "end": "2022-11-22T08:30:00+00:00"
      }
    },
    "request": {
      "method": "POST",
      "url": "Condition/4641664616316151"
    }
  }, {
    "fullUrl": "https://madie.cms.gov/Condition/3516546161161651",
    "resource": {
      "resourceType": "Condition",
      "id": "3516546161161651",
      "meta": {
        "profile": [ "http://hl7.org/fhir/us/qicore/StructureDefinition/qicore-condition" ]
      },
      "clinicalStatus": {
        "coding": [ {
          "system": "http://terminology.hl7.org/CodeSystem/condition-clinical",
          "code": "active",
          "display": "Active"
        } ]
      },
      "verificationStatus": {
        "coding": [ {
          "system": "http://terminology.hl7.org/CodeSystem/condition-ver-status",
          "code": "confirmed"
        } ]
      },
      "category": [ {
        "coding": [ {
          "system": "http://terminology.hl7.org/CodeSystem/condition-category",
          "code": "problem-list-item",
          "display": "Problem List Item"
        } ]
      } ],
      "code": {
        "coding": [ {
          "system": "http://snomed.info/sct",
          "version": "http://snomed.info/sct/731000124108/version/20240301",
          "code": "10365005",
          "display": "Right main coronary artery thrombosis (disorder)"
        } ]
      },
      "subject": {
        "reference": "Patient/a994dd9f-d7b0-441d-8358-1287d75836de"
      },
      "onsetPeriod": {
        "start": "2025-01-21T07:00:00.000+00:00"
      }
    },
    "request": {
      "method": "POST",
      "url": "Condition/3516546161161651"
    }
  }, {
    "fullUrl": "https://madie.cms.gov/Condition/216651515135654131",
    "resource": {
      "resourceType": "Condition",
      "id": "216651515135654131",
      "meta": {
        "profile": [ "http://hl7.org/fhir/us/qicore/StructureDefinition/qicore-condition" ]
      },
      "clinicalStatus": {
        "coding": [ {
          "system": "http://terminology.hl7.org/CodeSystem/condition-clinical",
          "code": "active",
          "display": "Active"
        } ]
      },
      "verificationStatus": {
        "coding": [ {
          "system": "http://terminology.hl7.org/CodeSystem/condition-ver-status",
          "code": "confirmed",
          "display": "Confirmed"
        } ]
      },
      "category": [ {
        "coding": [ {
          "system": "http://terminology.hl7.org/CodeSystem/condition-category",
          "code": "problem-list-item",
          "display": "Problem List Item"
        } ]
      } ],
      "code": {
        "coding": [ {
          "system": "http://snomed.info/sct",
          "version": "http://snomed.info/sct/731000124108/version/20240301",
          "code": "29894000"
        } ]
      },
      "subject": {
        "reference": "Patient/a994dd9f-d7b0-441d-8358-1287d75836de"
      },
      "onsetPeriod": {
        "start": "2025-04-05T06:00:00.000+00:00"
      }
    },
    "request": {
      "method": "POST",
      "url": "Condition/216651515135654131"
    }
  }, {
    "fullUrl": "https://madie.cms.gov/MeasureReport/ce05a500-d46a-412c-89a7-c3a35ec098bb",
    "resource": {
      "resourceType": "MeasureReport",
      "id": "ce05a500-d46a-412c-89a7-c3a35ec098bb",
      "meta": {
        "profile": [ "http://hl7.org/fhir/us/cqfmeasures/StructureDefinition/test-case-cqfm" ]
      },
      "contained": [ {
        "resourceType": "Parameters",
        "id": "bdf4e6ef-7ad8-43a6-a4c1-da0a057f0ef0-parameters",
        "parameter": [ {
          "name": "subject",
          "valueString": "a994dd9f-d7b0-441d-8358-1287d75836de"
        } ]
      } ],
      "extension": [ {
        "url": "http://hl7.org/fhir/us/cqfmeasures/StructureDefinition/cqfm-inputParameters",
        "valueReference": {
          "reference": "#bdf4e6ef-7ad8-43a6-a4c1-da0a057f0ef0-parameters"
        }
      } ],
      "modifierExtension": [ {
        "url": "http://hl7.org/fhir/us/cqfmeasures/StructureDefinition/cqfm-isTestCase",
        "valueBoolean": true
      } ],
      "status": "complete",
      "type": "individual",
      "measure": "https://madie.cms.gov/Measure/CADBetaBlockerTherapyPriorMIorLVSDFHIR",
      "period": {
        "start": "2025-01-01",
        "end": "2025-12-31"
      },
      "group": [ {
        "population": [ {
          "code": {
            "coding": [ {
              "system": "http://terminology.hl7.org/CodeSystem/measure-population",
              "code": "initial-population",
              "display": "Initial Population"
            } ]
          },
          "count": 1
        }, {
          "code": {
            "coding": [ {
              "system": "http://terminology.hl7.org/CodeSystem/measure-population",
              "code": "denominator",
              "display": "Denominator"
            } ]
          },
          "count": 0
        }, {
          "code": {
            "coding": [ {
              "system": "http://terminology.hl7.org/CodeSystem/measure-population",
              "code": "numerator",
              "display": "Numerator"
            } ]
          },
          "count": 0
        }, {
          "code": {
            "coding": [ {
              "system": "http://terminology.hl7.org/CodeSystem/measure-population",
              "code": "denominator-exception",
              "display": "Denominator Exception"
            } ]
          },
          "count": 0
        } ]
      }, {
        "population": [ {
          "code": {
            "coding": [ {
              "system": "http://terminology.hl7.org/CodeSystem/measure-population",
              "code": "initial-population",
              "display": "Initial Population"
            } ]
          },
          "count": 1
        }, {
          "code": {
            "coding": [ {
              "system": "http://terminology.hl7.org/CodeSystem/measure-population",
              "code": "denominator",
              "display": "Denominator"
            } ]
          },
          "count": 1
        }, {
          "code": {
            "coding": [ {
              "system": "http://terminology.hl7.org/CodeSystem/measure-population",
              "code": "numerator",
              "display": "Numerator"
            } ]
          },
          "count": 0
        }, {
          "code": {
            "coding": [ {
              "system": "http://terminology.hl7.org/CodeSystem/measure-population",
              "code": "denominator-exception",
              "display": "Denominator Exception"
            } ]
          },
          "count": 1
        } ]
      } ],
      "evaluatedResource": [ {
        "reference": "https://madie.cms.gov/Patient/a994dd9f-d7b0-441d-8358-1287d75836de"
      }, {
        "reference": "https://madie.cms.gov/Encounter/1648941616451631631"
      }, {
        "reference": "https://madie.cms.gov/Encounter/681684641684616315"
      }, {
        "reference": "https://madie.cms.gov/Condition/4641664616316151"
      }, {
        "reference": "https://madie.cms.gov/Condition/3516546161161651"
      }, {
        "reference": "https://madie.cms.gov/Condition/216651515135654131"
      } ]
    },
    "request": {
      "method": "POST",
      "url": "MeasureReport/ce05a500-d46a-412c-89a7-c3a35ec098bb"
    }
  } ]
}