{
  "resourceType": "Bundle",
  "id": "612e6aab02c62a011f2ead9b",
  "type": "transaction",
  "entry": [ {
    "fullUrl": "https://madie.cms.gov/Patient/068814f1-4270-4e10-b470-9a5433bceb3e",
    "resource": {
      "resourceType": "Patient",
      "id": "068814f1-4270-4e10-b470-9a5433bceb3e",
      "meta": {
        "profile": [ "http://hl7.org/fhir/us/qicore/StructureDefinition/qicore-patient" ]
      },
      "text": {
        "status": "generated",
        "div": "<div xmlns=\"http://www.w3.org/1999/xhtml\"><div class=\"hapiHeaderText\">MedReason_MA_LDUHep_DA_GCS_DuringED <b>NUMERPASS </b></div><table class=\"hapiPropertyTable\"><tbody><tr><td>Identifier</td><td>020df11163b665120eb01e83e644f1da</td></tr><tr><td>Date of birth</td><td><span>02 January 1974</span></td></tr></tbody></table></div>"
      },
      "extension": [ {
        "url": "http://hl7.org/fhir/us/core/StructureDefinition/us-core-race",
        "extension": [ {
          "url": "ombCategory",
          "valueCoding": {
            "system": "urn:oid:2.16.840.1.113883.6.238",
            "code": "1002-5",
            "display": "American Indian or Alaska Native",
            "userSelected": true
          }
        }, {
          "url": "text",
          "valueString": "American Indian or Alaska Native"
        } ]
      }, {
        "url": "http://hl7.org/fhir/us/core/StructureDefinition/us-core-ethnicity",
        "extension": [ {
          "url": "ombCategory",
          "valueCoding": {
            "system": "urn:oid:2.16.840.1.113883.6.238",
            "code": "2135-2",
            "display": "Hispanic or Latino",
            "userSelected": true
          }
        }, {
          "url": "text",
          "valueString": "Hispanic or Latino"
        } ]
      } ],
      "identifier": [ {
        "type": {
          "coding": [ {
            "system": "http://terminology.hl7.org/CodeSystem/v2-0203",
            "code": "MR"
          } ]
        },
        "system": "https://bonnie-fhir.healthit.gov/",
        "value": "612e6aab02c62a011f2ead9b"
      } ],
      "active": true,
      "name": [ {
        "use": "usual",
        "family": "NUMERPass",
        "given": [ "MedReason_MA_LDUHep_DA_GCS_DuringED" ]
      } ],
      "gender": "male",
      "birthDate": "1974-01-02"
    },
    "request": {
      "method": "POST",
      "url": "Patient/068814f1-4270-4e10-b470-9a5433bceb3e"
    }
  }, {
    "fullUrl": "https://madie.cms.gov/Encounter/5ca6295fb8484628b8de1df7",
    "resource": {
      "resourceType": "Encounter",
      "id": "5ca6295fb8484628b8de1df7",
      "meta": {
        "profile": [ "http://hl7.org/fhir/us/qicore/StructureDefinition/qicore-encounter" ]
      },
      "status": "finished",
      "class": {
        "system": "http://terminology.hl7.org/CodeSystem/v3-ActCode",
        "code": "EMER",
        "display": "emergency"
      },
      "type": [ {
        "coding": [ {
          "system": "http://snomed.info/sct",
          "code": "4525004"
        } ]
      } ],
      "subject": {
        "reference": "Patient/068814f1-4270-4e10-b470-9a5433bceb3e"
      },
      "period": {
        "start": "2025-10-31T05:00:00+00:00",
        "end": "2025-11-01T07:15:00+00:00"
      },
      "length": {
        "value": 1.0,
        "unit": "days"
      }
    },
    "request": {
      "method": "POST",
      "url": "Encounter/5ca6295fb8484628b8de1df7"
    }
  }, {
    "fullUrl": "https://madie.cms.gov/Encounter/5ca6295fb8484628b8de1df8",
    "resource": {
      "resourceType": "Encounter",
      "id": "5ca6295fb8484628b8de1df8",
      "meta": {
        "profile": [ "http://hl7.org/fhir/us/qicore/StructureDefinition/qicore-encounter" ]
      },
      "status": "finished",
      "class": {
        "system": "http://terminology.hl7.org/CodeSystem/v3-ActCode",
        "code": "IMP",
        "display": "inpatient encounter"
      },
      "type": [ {
        "coding": [ {
          "system": "http://snomed.info/sct",
          "code": "8715000"
        } ]
      } ],
      "subject": {
        "reference": "Patient/068814f1-4270-4e10-b470-9a5433bceb3e"
      },
      "period": {
        "start": "2025-11-01T08:00:00+00:00",
        "end": "2025-11-26T08:15:00+00:00"
      },
      "length": {
        "value": 25.0,
        "unit": "days"
      }
    },
    "request": {
      "method": "POST",
      "url": "Encounter/5ca6295fb8484628b8de1df8"
    }
  }, {
    "fullUrl": "https://madie.cms.gov/Coverage/5fa041541c76ba66d9959235",
    "resource": {
      "resourceType": "Coverage",
      "id": "5fa041541c76ba66d9959235",
      "status": "active",
      "beneficiary": {
        "reference": "Patient/068814f1-4270-4e10-b470-9a5433bceb3e"
      },
      "period": {
        "start": "1974-01-02T08:00:00+00:00"
      },
      "payor": [ {
        "reference": "Organization/123456"
      } ]
    },
    "request": {
      "method": "POST",
      "url": "Coverage/5fa041541c76ba66d9959235"
    }
  }, {
    "fullUrl": "https://madie.cms.gov/MedicationAdministration/5ca6295fb8484628b8de1dff",
    "resource": {
      "resourceType": "MedicationAdministration",
      "id": "5ca6295fb8484628b8de1dff",
      "meta": {
        "profile": [ "http://hl7.org/fhir/us/qicore/StructureDefinition/qicore-mednotadministered" ]
      },
      "extension": [ {
        "url": "http://hl7.org/fhir/us/qicore/StructureDefinition/qicore-recorded",
        "valueDateTime": "2025-11-01T07:00:00+00:00"
      } ],
      "status": "not-done",
      "statusReason": [ {
        "coding": [ {
          "system": "http://snomed.info/sct",
          "code": "183932001",
          "display": "Procedure contraindicated (situation)"
        } ]
      } ],
      "medicationCodeableConcept": {
        "coding": [ {
          "system": "http://www.nlm.nih.gov/research/umls/rxnorm",
          "code": "1361574"
        } ]
      },
      "subject": {
        "reference": "Patient/068814f1-4270-4e10-b470-9a5433bceb3e"
      },
      "effectivePeriod": {
        "start": "2025-11-01T07:00:00+00:00"
      }
    },
    "request": {
      "method": "POST",
      "url": "MedicationAdministration/5ca6295fb8484628b8de1dff"
    }
  }, {
    "fullUrl": "https://madie.cms.gov/Procedure/device-application-8a03",
    "resource": {
      "resourceType": "Procedure",
      "id": "device-application-8a03",
      "meta": {
        "profile": [ "http://hl7.org/fhir/us/qicore/StructureDefinition/qicore-procedurenotdone" ]
      },
      "extension": [ {
        "url": "http://hl7.org/fhir/us/qicore/StructureDefinition/qicore-recorded",
        "valueDateTime": "2025-11-01T07:00:00+00:00"
      } ],
      "status": "not-done",
      "statusReason": {
        "coding": [ {
          "system": "http://snomed.info/sct",
          "code": "183932001",
          "display": "Procedure contraindicated (situation)",
          "userSelected": true
        } ]
      },
      "code": {
        "coding": [ {
          "system": "http://snomed.info/sct",
          "code": "229511001",
          "display": "Application of graduated compression garment (procedure)",
          "userSelected": true
        } ]
      },
      "subject": {
        "reference": "Patient/068814f1-4270-4e10-b470-9a5433bceb3e"
      },
      "_performedDateTime": {
        "extension": [ {
          "url": "http://hl7.org/fhir/StructureDefinition/data-absent-reason",
          "valueCode": "not-performed"
        } ]
      }
    },
    "request": {
      "method": "POST",
      "url": "Procedure/device-application-8a03"
    }
  }, {
    "fullUrl": "https://madie.cms.gov/Organization/123456",
    "resource": {
      "resourceType": "Organization",
      "id": "123456",
      "meta": {
        "profile": [ "http://hl7.org/fhir/us/qicore/StructureDefinition/qicore-organization" ]
      },
      "identifier": [ {
        "use": "temp",
        "system": "urn:oid:2.16.840.1.113883.4.4",
        "value": "21-3259825"
      } ],
      "active": true,
      "type": [ {
        "coding": [ {
          "system": "http://terminology.hl7.org/CodeSystem/organization-type",
          "code": "pay",
          "display": "Payer"
        } ]
      } ],
      "name": "Blue Cross Blue Shield of Texas",
      "telecom": [ {
        "system": "phone",
        "value": "(+1) 972-766-6900"
      } ],
      "address": [ {
        "use": "billing",
        "type": "postal",
        "line": [ "P.O. Box 660044" ],
        "city": "Dallas",
        "state": "TX",
        "postalCode": "75266-0044",
        "country": "USA"
      } ]
    },
    "request": {
      "method": "POST",
      "url": "Organization/123456"
    }
  }, {
    "fullUrl": "https://madie.cms.gov/Practitioner/practitioner-123456",
    "resource": {
      "resourceType": "Practitioner",
      "id": "practitioner-123456",
      "identifier": [ {
        "system": "http://hl7.org/fhir/sid/us-npi",
        "value": "123456"
      } ],
      "name": [ {
        "family": "Evil",
        "prefix": [ "Dr" ]
      } ]
    },
    "request": {
      "method": "POST",
      "url": "Practitioner/practitioner-123456"
    }
  }, {
    "fullUrl": "https://madie.cms.gov/MeasureReport/ae5b4861-1eba-43b1-91cb-79689221f093",
    "resource": {
      "resourceType": "MeasureReport",
      "id": "ae5b4861-1eba-43b1-91cb-79689221f093",
      "meta": {
        "profile": [ "http://hl7.org/fhir/us/cqfmeasures/StructureDefinition/test-case-cqfm" ]
      },
      "contained": [ {
        "resourceType": "Parameters",
        "id": "4789c69b-6e91-4370-8331-084df4bc948d-parameters",
        "parameter": [ {
          "name": "subject",
          "valueString": "068814f1-4270-4e10-b470-9a5433bceb3e"
        } ]
      } ],
      "extension": [ {
        "url": "http://hl7.org/fhir/us/cqfmeasures/StructureDefinition/cqfm-inputParameters",
        "valueReference": {
          "reference": "#4789c69b-6e91-4370-8331-084df4bc948d-parameters"
        }
      }, {
        "url": "http://hl7.org/fhir/us/cqfmeasures/StructureDefinition/cqfm-testCaseDescription",
        "valueMarkdown": "medical reasons to not receive no GCS and no low dose heparin during ED\n"
      } ],
      "modifierExtension": [ {
        "url": "http://hl7.org/fhir/us/cqfmeasures/StructureDefinition/cqfm-isTestCase",
        "valueBoolean": true
      } ],
      "status": "complete",
      "type": "individual",
      "measure": "https://madie.cms.gov/Measure/VenousThromboembolismProphylaxisFHIR",
      "period": {
        "start": "2025-01-01",
        "end": "2025-12-31"
      },
      "group": [ {
        "population": [ {
          "code": {
            "coding": [ {
              "system": "http://terminology.hl7.org/CodeSystem/measure-population",
              "code": "initial-population",
              "display": "Initial Population"
            } ]
          },
          "count": 1
        }, {
          "code": {
            "coding": [ {
              "system": "http://terminology.hl7.org/CodeSystem/measure-population",
              "code": "denominator",
              "display": "Denominator"
            } ]
          },
          "count": 1
        }, {
          "code": {
            "coding": [ {
              "system": "http://terminology.hl7.org/CodeSystem/measure-population",
              "code": "denominator-exclusion",
              "display": "Denominator Exclusion"
            } ]
          },
          "count": 0
        }, {
          "code": {
            "coding": [ {
              "system": "http://terminology.hl7.org/CodeSystem/measure-population",
              "code": "numerator",
              "display": "Numerator"
            } ]
          },
          "count": 1
        } ]
      } ],
      "evaluatedResource": [ {
        "reference": "https://madie.cms.gov/Patient/068814f1-4270-4e10-b470-9a5433bceb3e"
      }, {
        "reference": "https://madie.cms.gov/Encounter/5ca6295fb8484628b8de1df7"
      }, {
        "reference": "https://madie.cms.gov/Encounter/5ca6295fb8484628b8de1df8"
      }, {
        "reference": "https://madie.cms.gov/Coverage/5fa041541c76ba66d9959235"
      }, {
        "reference": "https://madie.cms.gov/MedicationAdministration/5ca6295fb8484628b8de1dff"
      }, {
        "reference": "https://madie.cms.gov/Procedure/device-application-8a03"
      }, {
        "reference": "https://madie.cms.gov/Organization/123456"
      }, {
        "reference": "https://madie.cms.gov/Practitioner/practitioner-123456"
      } ]
    },
    "request": {
      "method": "POST",
      "url": "MeasureReport/ae5b4861-1eba-43b1-91cb-79689221f093"
    }
  } ]
}