{"resourceType":"Bundle","id":"tests-6aef5a18-59bd-4a47-80bc-2bd44636e41f-bundle","type":"transaction","entry":[{"fullUrl":"https://madie.cms.gov/Patient/6aef5a18-59bd-4a47-80bc-2bd44636e41f","resource":{"resourceType":"Patient","id":"6aef5a18-59bd-4a47-80bc-2bd44636e41f","meta":{"profile":["http://hl7.org/fhir/us/qicore/StructureDefinition/qicore-patient"]},"extension":[{"url":"http://hl7.org/fhir/us/core/StructureDefinition/us-core-race","extension":[{"url":"ombCategory","valueCoding":{"system":"urn:oid:2.16.840.1.113883.6.238","code":"1002-5","display":"American Indian or Alaska Native","userSelected":true}},{"url":"text","valueString":"American Indian or Alaska Native"}]},{"url":"http://hl7.org/fhir/us/core/StructureDefinition/us-core-ethnicity","extension":[{"url":"ombCategory","valueCoding":{"system":"urn:oid:2.16.840.1.113883.6.238","code":"2186-5","display":"Not Hispanic or Latino","userSelected":true}},{"url":"text","valueString":"Not Hispanic or Latino"}]}],"identifier":[{"type":{"coding":[{"system":"http://terminology.hl7.org/CodeSystem/v2-0203","code":"MR"}]},"system":"https://bonnie-fhir.healthit.gov/","value":"61168b8798086b77ef9c5ecc"}],"active":true,"name":[{"use":"usual","family":"DENEXCEPPass","given":["CommEdemaAbsentNotDoneMR"]}],"gender":"male","birthDate":"1971-08-29"},"request":{"method":"PUT","url":"Patient/6aef5a18-59bd-4a47-80bc-2bd44636e41f"}},{"fullUrl":"https://madie.cms.gov/Communication/5c9a42e9b8484623838500a0","resource":{"resourceType":"Communication","id":"5c9a42e9b8484623838500a0","meta":{"profile":["http://hl7.org/fhir/us/qicore/StructureDefinition/qicore-communication"]},"extension":[{"url":"http://hl7.org/fhir/us/qicore/StructureDefinition/qicore-recorded","valueDateTime":"2012-07-02T15:00:00+00:00"}],"modifierExtension":[{"url":"http://hl7.org/fhir/us/qicore/StructureDefinition/qicore-notDone","valueBoolean":true},{"url":"http://hl7.org/fhir/us/qicore/StructureDefinition/qicore-notDone","valueBoolean":true}],"status":"not-done","statusReason":{"coding":[{"system":"http://snomed.info/sct","version":"http://snomed.info/sct/731000124108/version/202303","code":"183932001","display":"Procedure contraindicated (situation)","userSelected":true}]},"subject":{"reference":"Patient/6aef5a18-59bd-4a47-80bc-2bd44636e41f"},"sent":"2025-07-09T08:00:00.000+00:00","reasonCode":[{"coding":[{"system":"http://snomed.info/sct","code":"428341000124108"}]}]},"request":{"method":"PUT","url":"Communication/5c9a42e9b8484623838500a0"}},{"fullUrl":"https://madie.cms.gov/Condition/5c9a42e9b84846238385009c","resource":{"resourceType":"Condition","id":"5c9a42e9b84846238385009c","meta":{"profile":["http://hl7.org/fhir/us/qicore/StructureDefinition/qicore-condition"]},"clinicalStatus":{"coding":[{"system":"http://terminology.hl7.org/CodeSystem/condition-clinical","code":"active","display":"active","userSelected":true}]},"category":[{"coding":[{"system":"http://terminology.hl7.org/CodeSystem/condition-category","code":"problem-list-item","display":"Problem List Item"}]}],"code":{"coding":[{"system":"http://snomed.info/sct","version":"http://snomed.info/sct/731000124108/version/202303","code":"193349004"},{"system":"http://hl7.org/fhir/sid/icd-10-cm","version":"2023","code":"E08.311"}]},"subject":{"reference":"Patient/6aef5a18-59bd-4a47-80bc-2bd44636e41f"},"onsetDateTime":"2021-07-01T15:00:00+00:00"},"request":{"method":"PUT","url":"Condition/5c9a42e9b84846238385009c"}},{"fullUrl":"https://madie.cms.gov/Observation/5c9a42e9b84846238385009e","resource":{"resourceType":"Observation","id":"5c9a42e9b84846238385009e","meta":{"profile":["http://hl7.org/fhir/us/qicore/StructureDefinition/qicore-observation"]},"status":"final","category":[{"coding":[{"system":"http://terminology.hl7.org/CodeSystem/observation-category","code":"vital-signs","display":"Vital Signs"}]}],"code":{"coding":[{"system":"http://loinc.org","version":"2.73","code":"32451-7"}]},"subject":{"reference":"Patient/6aef5a18-59bd-4a47-80bc-2bd44636e41f"},"effectiveDateTime":"2025-07-09T08:00:00.000+00:00","valueBoolean":true},"request":{"method":"PUT","url":"Observation/5c9a42e9b84846238385009e"}},{"fullUrl":"https://madie.cms.gov/Encounter/5c9a42e9b84846238385009d","resource":{"resourceType":"Encounter","id":"5c9a42e9b84846238385009d","meta":{"profile":["http://hl7.org/fhir/us/qicore/StructureDefinition/qicore-encounter"]},"status":"finished","class":{"system":"http://terminology.hl7.org/CodeSystem/v3-ActCode","code":"AMB"},"type":[{"coding":[{"system":"http://www.ama-assn.org/go/cpt","version":"2023","code":"99205"}]}],"subject":{"reference":"Patient/6aef5a18-59bd-4a47-80bc-2bd44636e41f"},"period":{"start":"2025-07-02T15:00:00.000+00:00","end":"2025-08-02T16:00:00.000+00:00"}},"request":{"method":"PUT","url":"Encounter/5c9a42e9b84846238385009d"}},{"fullUrl":"https://madie.cms.gov/Communication/64589200014","resource":{"resourceType":"Communication","id":"64589200014","meta":{"profile":["http://hl7.org/fhir/us/qicore/StructureDefinition/qicore-communicationnotdone"]},"extension":[{"url":"http://hl7.org/fhir/us/qicore/StructureDefinition/qicore-recorded","valueDateTime":"2025-07-09T08:00:00.000+00:00"}],"status":"not-done","statusReason":{"coding":[{"system":"http://snomed.info/sct","version":"http://snomed.info/sct/731000124108/version/202303","code":"183932001","display":"Procedure contraindicated (situation)","userSelected":true}]},"category":[{"coding":[{"system":"http://snomed.info/sct","code":"428341000124108","display":"Macular edema absent (situation)","userSelected":true}]}],"sent":"2025-07-09T08:00:00.000+00:00","reasonCode":[{"coding":[{"system":"http://snomed.info/sct","version":"http://snomed.info/sct/731000124108/version/202303","code":"428341000124108","display":"Macular edema absent (situation)"}]}]},"request":{"method":"PUT","url":"Communication/64589200014"}},{"fullUrl":"https://madie.cms.gov/MeasureReport/2dc43353-2b0a-4b36-9993-39fc2b35a2ef","resource":{"resourceType":"MeasureReport","id":"2dc43353-2b0a-4b36-9993-39fc2b35a2ef","meta":{"profile":["http://hl7.org/fhir/us/cqfmeasures/StructureDefinition/test-case-cqfm"]},"contained":[{"resourceType":"Parameters","id":"590170f4-2fa4-46a9-8952-e763aa4a473b-parameters","parameter":[{"name":"subject","valueString":"6aef5a18-59bd-4a47-80bc-2bd44636e41f"}]}],"extension":[{"url":"http://hl7.org/fhir/us/cqfmeasures/StructureDefinition/cqfm-inputParameters","valueReference":{"reference":"#590170f4-2fa4-46a9-8952-e763aa4a473b-parameters"}},{"url":"http://hl7.org/fhir/us/cqfmeasures/StructureDefinition/cqfm-testCaseDescription","valueMarkdown":"Patient with communication of macular edema absent not done due to medical reason. \n\n"}],"modifierExtension":[{"url":"http://hl7.org/fhir/us/cqfmeasures/StructureDefinition/cqfm-isTestCase","valueBoolean":true}],"status":"complete","type":"individual","measure":"https://madie.cms.gov/Measure/DRCommunicationWithPhysicianManagingDiabetesFHIR","period":{"start":"2025-01-01","end":"2025-12-31"},"group":[{"population":[{"code":{"coding":[{"system":"http://terminology.hl7.org/CodeSystem/measure-population","code":"initial-population","display":"Initial Population"}]},"count":1},{"code":{"coding":[{"system":"http://terminology.hl7.org/CodeSystem/measure-population","code":"denominator","display":"Denominator"}]},"count":1},{"code":{"coding":[{"system":"http://terminology.hl7.org/CodeSystem/measure-population","code":"numerator","display":"Numerator"}]},"count":0},{"code":{"coding":[{"system":"http://terminology.hl7.org/CodeSystem/measure-population","code":"denominator-exception","display":"Denominator Exception"}]},"count":1}]}],"evaluatedResource":[{"reference":"Patient/6aef5a18-59bd-4a47-80bc-2bd44636e41f"},{"reference":"Communication/5c9a42e9b8484623838500a0"},{"reference":"Condition/5c9a42e9b84846238385009c"},{"reference":"Observation/5c9a42e9b84846238385009e"},{"reference":"Encounter/5c9a42e9b84846238385009d"},{"reference":"Communication/64589200014"}]},"request":{"method":"PUT","url":"MeasureReport/2dc43353-2b0a-4b36-9993-39fc2b35a2ef"}}]}