{"resourceType":"Bundle","id":"tests-b85440e4-b902-49cd-b3d6-363ba7a99bce-bundle","type":"transaction","entry":[{"fullUrl":"https://madie.cms.gov/Patient/b85440e4-b902-49cd-b3d6-363ba7a99bce","resource":{"resourceType":"Patient","id":"b85440e4-b902-49cd-b3d6-363ba7a99bce","meta":{"profile":["http://hl7.org/fhir/us/qicore/StructureDefinition/qicore-patient"]},"extension":[{"url":"http://hl7.org/fhir/us/core/StructureDefinition/us-core-race","extension":[{"url":"ombCategory","valueCoding":{"system":"urn:oid:2.16.840.1.113883.6.238","code":"2076-8","display":"Native Hawaiian or Other Pacific Islander","userSelected":true}},{"url":"text","valueString":"Native Hawaiian or Other Pacific Islander"}]},{"url":"http://hl7.org/fhir/us/core/StructureDefinition/us-core-ethnicity","extension":[{"url":"ombCategory","valueCoding":{"system":"urn:oid:2.16.840.1.113883.6.238","code":"2186-5","display":"Not Hispanic or Latino","userSelected":true}},{"url":"text","valueString":"Not Hispanic or Latino"}]}],"identifier":[{"type":{"coding":[{"system":"http://terminology.hl7.org/CodeSystem/v2-0203","code":"MR"}]},"system":"https://bonnie-fhir.healthit.gov/","value":"61168b8798086b77ef9c5ecd"}],"active":true,"name":[{"use":"usual","family":"DENEXCEPPass","given":["CommLOSNotDoneMedical Reason"]}],"gender":"male","birthDate":"1979-01-14"},"request":{"method":"PUT","url":"Patient/b85440e4-b902-49cd-b3d6-363ba7a99bce"}},{"fullUrl":"https://madie.cms.gov/Communication/5c9a42e9b8484623838500a0","resource":{"resourceType":"Communication","id":"5c9a42e9b8484623838500a0","meta":{"profile":["http://hl7.org/fhir/us/qicore/StructureDefinition/qicore-communication"]},"extension":[{"url":"http://hl7.org/fhir/us/qicore/StructureDefinition/qicore-recorded","valueDateTime":"2012-07-02T15:00:00+00:00"}],"modifierExtension":[{"url":"http://hl7.org/fhir/us/qicore/StructureDefinition/qicore-notDone","valueBoolean":true},{"url":"http://hl7.org/fhir/us/qicore/StructureDefinition/qicore-notDone","valueBoolean":true}],"status":"not-done","statusReason":{"coding":[{"system":"http://snomed.info/sct","version":"http://snomed.info/sct/731000124108/version/20230301","code":"183932001","display":"Procedure contraindicated (situation)","userSelected":true}]},"subject":{"reference":"Patient/b85440e4-b902-49cd-b3d6-363ba7a99bce"},"sent":"2025-07-09T08:00:00.000+00:00","reasonCode":[{"coding":[{"system":"http://snomed.info/sct","version":"http://snomed.info/sct/731000124108/version/20230301","code":"312911008","display":"Clinically significant macular edema (disorder)"}]}]},"request":{"method":"PUT","url":"Communication/5c9a42e9b8484623838500a0"}},{"fullUrl":"https://madie.cms.gov/Condition/5c9a42e9b84846238385009c","resource":{"resourceType":"Condition","id":"5c9a42e9b84846238385009c","meta":{"profile":["http://hl7.org/fhir/us/qicore/StructureDefinition/qicore-condition"]},"clinicalStatus":{"coding":[{"system":"http://terminology.hl7.org/CodeSystem/condition-clinical","code":"active","display":"active","userSelected":true}]},"category":[{"coding":[{"system":"http://terminology.hl7.org/CodeSystem/condition-category","code":"problem-list-item","display":"Problem List Item"}]}],"code":{"coding":[{"system":"http://snomed.info/sct","version":"http://snomed.info/sct/731000124108/version/202303","code":"193349004"},{"system":"http://hl7.org/fhir/sid/icd-10-cm","version":"2023","code":"E08.311"}]},"subject":{"reference":"Patient/b85440e4-b902-49cd-b3d6-363ba7a99bce"},"onsetDateTime":"2021-07-01T15:00:00+00:00"},"request":{"method":"PUT","url":"Condition/5c9a42e9b84846238385009c"}},{"fullUrl":"https://madie.cms.gov/Observation/5c9a42e9b84846238385009e","resource":{"resourceType":"Observation","id":"5c9a42e9b84846238385009e","meta":{"profile":["http://hl7.org/fhir/us/qicore/StructureDefinition/qicore-observation"]},"status":"final","category":[{"coding":[{"system":"http://terminology.hl7.org/CodeSystem/observation-category","code":"vital-signs","display":"Vital Signs"}]}],"code":{"coding":[{"system":"http://loinc.org","version":"2.73","code":"32451-7"}]},"subject":{"reference":"Patient/b85440e4-b902-49cd-b3d6-363ba7a99bce"},"effectiveDateTime":"2025-07-09T08:00:00.000+00:00","valueBoolean":true},"request":{"method":"PUT","url":"Observation/5c9a42e9b84846238385009e"}},{"fullUrl":"https://madie.cms.gov/Encounter/5c9a42e9b84846238385009d","resource":{"resourceType":"Encounter","id":"5c9a42e9b84846238385009d","meta":{"profile":["http://hl7.org/fhir/us/qicore/StructureDefinition/qicore-encounter"]},"status":"finished","class":{"system":"http://terminology.hl7.org/CodeSystem/v3-ActCode","code":"AMB"},"type":[{"coding":[{"system":"http://www.ama-assn.org/go/cpt","version":"2023","code":"99205"}]}],"subject":{"reference":"Patient/b85440e4-b902-49cd-b3d6-363ba7a99bce"},"period":{"start":"2025-07-02T15:00:00.000+00:00","end":"2025-08-02T16:00:00.000+00:00"}},"request":{"method":"PUT","url":"Encounter/5c9a42e9b84846238385009d"}},{"fullUrl":"https://madie.cms.gov/Communication/64589200014","resource":{"resourceType":"Communication","id":"64589200014","meta":{"profile":["http://hl7.org/fhir/us/qicore/StructureDefinition/qicore-communicationnotdone"]},"extension":[{"url":"http://hl7.org/fhir/us/qicore/StructureDefinition/qicore-recorded","valueDateTime":"2025-07-09T08:00:00.000+00:00"}],"status":"not-done","statusReason":{"coding":[{"system":"http://snomed.info/sct","version":"http://snomed.info/sct/731000124108/version/20230301","code":"183932001","display":"Procedure contraindicated (situation)","userSelected":true}]},"category":[{"coding":[{"system":"http://snomed.info/sct","code":"59276001","display":"Proliferative retinopathy due to diabetes mellitus (disorder)","userSelected":true}]}],"sent":"2025-07-09T08:00:00.000+00:00","reasonCode":[{"coding":[{"system":"http://snomed.info/sct","version":"http://snomed.info/sct/731000124108/version/202303","code":"59276001","display":"Proliferative retinopathy due to diabetes mellitus (disorder)"}]}]},"request":{"method":"PUT","url":"Communication/64589200014"}},{"fullUrl":"https://madie.cms.gov/MeasureReport/e368d7ce-05bd-41ae-b008-995f33b2af30","resource":{"resourceType":"MeasureReport","id":"e368d7ce-05bd-41ae-b008-995f33b2af30","meta":{"profile":["http://hl7.org/fhir/us/cqfmeasures/StructureDefinition/test-case-cqfm"]},"contained":[{"resourceType":"Parameters","id":"ff9158d1-9002-4f80-9517-b2ee61699127-parameters","parameter":[{"name":"subject","valueString":"b85440e4-b902-49cd-b3d6-363ba7a99bce"}]}],"extension":[{"url":"http://hl7.org/fhir/us/cqfmeasures/StructureDefinition/cqfm-inputParameters","valueReference":{"reference":"#ff9158d1-9002-4f80-9517-b2ee61699127-parameters"}},{"url":"http://hl7.org/fhir/us/cqfmeasures/StructureDefinition/cqfm-testCaseDescription","valueMarkdown":"Communication of level of severity not done due to medical reason, which meets Denominator Exception"}],"modifierExtension":[{"url":"http://hl7.org/fhir/us/cqfmeasures/StructureDefinition/cqfm-isTestCase","valueBoolean":true}],"status":"complete","type":"individual","measure":"https://madie.cms.gov/Measure/DRCommunicationWithPhysicianManagingDiabetesFHIR","period":{"start":"2025-01-01","end":"2025-12-31"},"group":[{"population":[{"code":{"coding":[{"system":"http://terminology.hl7.org/CodeSystem/measure-population","code":"initial-population","display":"Initial Population"}]},"count":1},{"code":{"coding":[{"system":"http://terminology.hl7.org/CodeSystem/measure-population","code":"denominator","display":"Denominator"}]},"count":1},{"code":{"coding":[{"system":"http://terminology.hl7.org/CodeSystem/measure-population","code":"numerator","display":"Numerator"}]},"count":0},{"code":{"coding":[{"system":"http://terminology.hl7.org/CodeSystem/measure-population","code":"denominator-exception","display":"Denominator Exception"}]},"count":1}]}],"evaluatedResource":[{"reference":"Patient/b85440e4-b902-49cd-b3d6-363ba7a99bce"},{"reference":"Communication/5c9a42e9b8484623838500a0"},{"reference":"Condition/5c9a42e9b84846238385009c"},{"reference":"Observation/5c9a42e9b84846238385009e"},{"reference":"Encounter/5c9a42e9b84846238385009d"},{"reference":"Communication/64589200014"}]},"request":{"method":"PUT","url":"MeasureReport/e368d7ce-05bd-41ae-b008-995f33b2af30"}}]}