{"resourceType":"Bundle","id":"tests-942960c8-37da-492d-85c8-0271d7b655b2-bundle","type":"transaction","entry":[{"fullUrl":"https://madie.cms.gov/Patient/942960c8-37da-492d-85c8-0271d7b655b2","resource":{"resourceType":"Patient","id":"942960c8-37da-492d-85c8-0271d7b655b2","meta":{"profile":["http://hl7.org/fhir/us/qicore/StructureDefinition/qicore-patient"]},"text":{"status":"generated","div":"<div xmlns=\"http://www.w3.org/1999/xhtml\"><div class=\"hapiHeaderText\">GT24beforeButLT24after <b>WEIGHTPASS </b></div><table class=\"hapiPropertyTable\"><tbody><tr><td>Identifier</td><td>af4f1b60304c2dfd571a63f06371ced6a910caaabd39580cdcebe7683e429596</td></tr><tr><td>Date of birth</td><td><span>21 June 1947</span></td></tr></tbody></table></div>"},"extension":[{"url":"http://hl7.org/fhir/us/core/StructureDefinition/us-core-race","extension":[{"url":"ombCategory","valueCoding":{"system":"urn:oid:2.16.840.1.113883.6.238","code":"1002-5","display":"American Indian or Alaska Native","userSelected":true}},{"url":"text","valueString":"American Indian or Alaska Native"}]},{"url":"http://hl7.org/fhir/us/core/StructureDefinition/us-core-ethnicity","extension":[{"url":"ombCategory","valueCoding":{"system":"urn:oid:2.16.840.1.113883.6.238","code":"2186-5","display":"Not Hispanic or Latino","userSelected":true}},{"url":"text","valueString":"Not Hispanic or Latino"}]}],"identifier":[{"type":{"coding":[{"system":"http://terminology.hl7.org/CodeSystem/v2-0203","code":"MR"}]},"system":"https://bonnie-fhir.healthit.gov/","value":"63ec09a5ccb3770120feaa17"}],"active":true,"name":[{"use":"usual","family":"WeightPass","given":["Weight1MinBeforeand1MinAfterEncounterStart"]}],"gender":"male","birthDate":"1948-06-21"},"request":{"method":"PUT","url":"Patient/942960c8-37da-492d-85c8-0271d7b655b2"}},{"fullUrl":"https://madie.cms.gov/Encounter/30267a12-d5ae-4ed4-afb6-6ecbe8db5101","resource":{"resourceType":"Encounter","id":"30267a12-d5ae-4ed4-afb6-6ecbe8db5101","meta":{"profile":["http://hl7.org/fhir/us/qicore/StructureDefinition/qicore-encounter"]},"status":"finished","class":{"system":"http://terminology.hl7.org/CodeSystem/v3-ActCode","code":"IMP","display":"inpatient encounter","userSelected":true},"type":[{"coding":[{"system":"http://snomed.info/sct","code":"183452005"}]}],"subject":{"reference":"Patient/942960c8-37da-492d-85c8-0271d7b655b2"},"period":{"start":"2026-07-21T08:00:00.000+00:00","end":"2026-08-18T08:15:00.000+00:00"}},"request":{"method":"PUT","url":"Encounter/30267a12-d5ae-4ed4-afb6-6ecbe8db5101"}},{"fullUrl":"https://madie.cms.gov/Coverage/e949d710-02c8-46b2-afbd-0fc52970aa79","resource":{"resourceType":"Coverage","id":"e949d710-02c8-46b2-afbd-0fc52970aa79","meta":{"profile":["http://hl7.org/fhir/us/qicore/StructureDefinition/qicore-coverage"]},"status":"active","type":{"coding":[{"system":"https://nahdo.org/sopt","version":"1.0.1","code":"1","display":"Medicare payer","userSelected":true}]},"beneficiary":{"reference":"Patient/942960c8-37da-492d-85c8-0271d7b655b2"},"payor":[{"reference":"Organization/18ca435c-cae6-4c34-8033-af717477f9fc"}]},"request":{"method":"PUT","url":"Coverage/e949d710-02c8-46b2-afbd-0fc52970aa79"}},{"fullUrl":"https://madie.cms.gov/Observation/2e5b178a-d0d3-4569-a490-d9d421408225","resource":{"resourceType":"Observation","id":"2e5b178a-d0d3-4569-a490-d9d421408225","meta":{"profile":["http://hl7.org/fhir/StructureDefinition/bodyweight"]},"status":"final","category":[{"coding":[{"system":"http://terminology.hl7.org/CodeSystem/observation-category","code":"vital-signs","display":"Vital Signs","userSelected":true}]}],"code":{"coding":[{"system":"http://loinc.org","code":"29463-7","display":"Body weight"}]},"subject":{"reference":"Patient/942960c8-37da-492d-85c8-0271d7b655b2"},"effectiveDateTime":"2026-07-21T07:59:00.000+00:00","valueQuantity":{"value":170.0,"unit":"[lb_av]","system":"http://unitsofmeasure.org","code":"[lb_av]"}},"request":{"method":"PUT","url":"Observation/2e5b178a-d0d3-4569-a490-d9d421408225"}},{"fullUrl":"https://madie.cms.gov/Observation/778a793b-b992-4b03-9f6b-239f01681934","resource":{"resourceType":"Observation","id":"778a793b-b992-4b03-9f6b-239f01681934","meta":{"profile":["http://hl7.org/fhir/StructureDefinition/bodyweight"]},"status":"final","category":[{"coding":[{"system":"http://terminology.hl7.org/CodeSystem/observation-category","code":"vital-signs","display":"Vital Signs","userSelected":true}]}],"code":{"coding":[{"system":"http://loinc.org","code":"29463-7","display":"Body weight"}]},"subject":{"reference":"Patient/942960c8-37da-492d-85c8-0271d7b655b2"},"effectiveDateTime":"2026-07-21T08:01:00.000+00:00","valueQuantity":{"value":165.0,"unit":"[lb_av]","system":"http://unitsofmeasure.org","code":"[lb_av]"}},"request":{"method":"PUT","url":"Observation/778a793b-b992-4b03-9f6b-239f01681934"}},{"fullUrl":"https://madie.cms.gov/Organization/422335c3-d3e3-4078-8484-cc7c341b4b5d","resource":{"resourceType":"Organization","id":"18ca435c-cae6-4c34-8033-af717477f9fc","meta":{"profile":["http://hl7.org/fhir/us/qicore/StructureDefinition/qicore-organization"]},"identifier":[{"use":"temp","system":"urn:oid:2.16.840.1.113883.4.4","value":"21-3259825"}],"active":true,"type":[{"coding":[{"system":"http://terminology.hl7.org/CodeSystem/organization-type","code":"pay","display":"Payer"}]}],"name":"Blue Cross Blue Shield of Texas","telecom":[{"system":"phone","value":"(+1) 972-766-6900"}],"address":[{"use":"billing","type":"postal","line":["P.O. Box 660044"],"city":"Dallas","state":"TX","postalCode":"75266-0044","country":"USA"}]},"request":{"method":"PUT","url":"Organization/18ca435c-cae6-4c34-8033-af717477f9fc"}},{"fullUrl":"https://madie.cms.gov/Practitioner/cfe88875-fec5-4fba-9d79-993ad792e0b7","resource":{"resourceType":"Practitioner","id":"cfe88875-fec5-4fba-9d79-993ad792e0b7","meta":{"profile":["http://hl7.org/fhir/us/qicore/StructureDefinition/qicore-practitioner"]},"identifier":[{"system":"http://hl7.org/fhir/sid/us-npi","value":"123456"}],"name":[{"family":"Evil","prefix":["Dr"]}]},"request":{"method":"PUT","url":"Practitioner/cfe88875-fec5-4fba-9d79-993ad792e0b7"}},{"fullUrl":"https://madie.cms.gov/MeasureReport/1f385cce-9d6c-4e0d-b8d7-e9ad45857c49","resource":{"resourceType":"MeasureReport","id":"1f385cce-9d6c-4e0d-b8d7-e9ad45857c49","meta":{"profile":["http://hl7.org/fhir/us/cqfmeasures/StructureDefinition/test-case-cqfm"]},"contained":[{"resourceType":"Parameters","id":"89486661-fa3c-44a3-8e01-c38961cf7d4b-parameters","parameter":[{"name":"subject","valueString":"942960c8-37da-492d-85c8-0271d7b655b2"}]}],"extension":[{"url":"http://hl7.org/fhir/us/cqfmeasures/StructureDefinition/cqfm-inputParameters","valueReference":{"reference":"#89486661-fa3c-44a3-8e01-c38961cf7d4b-parameters"}},{"url":"http://hl7.org/fhir/us/cqfmeasures/StructureDefinition/cqfm-testCaseDescription","valueMarkdown":"Patient has 2 weight exams.\nOne exam occurred 1 minute before encounter, one exam occurred 1 minute after encounter started. "}],"modifierExtension":[{"url":"http://hl7.org/fhir/us/cqfmeasures/StructureDefinition/cqfm-isTestCase","valueBoolean":true}],"status":"complete","type":"individual","measure":"https://madie.cms.gov/Measure/CMSFHIR529HybridHospitalWideReadmission","period":{"start":"2026-07-01","end":"2027-06-30"},"group":[{"population":[{"code":{"coding":[{"system":"http://terminology.hl7.org/CodeSystem/measure-population","code":"initial-population","display":"Initial Population"}]},"count":1}]}]},"request":{"method":"PUT","url":"MeasureReport/1f385cce-9d6c-4e0d-b8d7-e9ad45857c49"}}]}