{"resourceType":"Bundle","id":"tests-cbb6a940-7c9b-4d80-b9be-39a029f6f0b0-bundle","type":"transaction","entry":[{"fullUrl":"https://madie.cms.gov/Patient/cbb6a940-7c9b-4d80-b9be-39a029f6f0b0","resource":{"resourceType":"Patient","id":"cbb6a940-7c9b-4d80-b9be-39a029f6f0b0","meta":{"profile":["http://hl7.org/fhir/us/qicore/StructureDefinition/qicore-patient"]},"extension":[{"url":"http://hl7.org/fhir/us/core/StructureDefinition/us-core-race","extension":[{"url":"ombCategory","valueCoding":{"system":"urn:oid:2.16.840.1.113883.6.238","code":"1002-5","display":"American Indian or Alaska Native","userSelected":true}},{"url":"text","valueString":"American Indian or Alaska Native"}]},{"url":"http://hl7.org/fhir/us/core/StructureDefinition/us-core-ethnicity","extension":[{"url":"ombCategory","valueCoding":{"system":"urn:oid:2.16.840.1.113883.6.238","code":"2135-2","display":"Hispanic or Latino","userSelected":true}},{"url":"text","valueString":"Hispanic or Latino"}]}],"identifier":[{"type":{"coding":[{"system":"http://terminology.hl7.org/CodeSystem/v2-0203","code":"MR"}]},"system":"https://bonnie-fhir.healthit.gov/","value":"62d96dcbf0347d1abcae6c11"}],"name":[{"family":"DENEXCEPPop1Pass","given":["DischargedHomeForHospice"]}],"gender":"male","birthDate":"2005-01-01"},"request":{"method":"PUT","url":"Patient/cbb6a940-7c9b-4d80-b9be-39a029f6f0b0"}},{"fullUrl":"https://madie.cms.gov/Encounter/outpatient-consultation-6c12","resource":{"resourceType":"Encounter","id":"2c1a97d6-693b-4854-8a1b-592e7a9b551a","meta":{"profile":["http://hl7.org/fhir/us/qicore/StructureDefinition/qicore-encounter"]},"status":"finished","class":{"system":"http://terminology.hl7.org/CodeSystem/v3-ActCode","code":"AMB","display":"ambulatory"},"type":[{"coding":[{"system":"http://snomed.info/sct","version":"2022-03","code":"281036007","display":"Follow-up consultation (procedure)","userSelected":true}]}],"subject":{"reference":"Patient/cbb6a940-7c9b-4d80-b9be-39a029f6f0b0"},"period":{"start":"2025-01-01T08:00:00.000+00:00","end":"2025-01-01T08:45:00.000+00:00"}},"request":{"method":"PUT","url":"Encounter/2c1a97d6-693b-4854-8a1b-592e7a9b551a"}},{"fullUrl":"https://madie.cms.gov/Condition/atherosclerosis-and-peripheral-arterial-disease-6c13","resource":{"resourceType":"Condition","id":"4d818d4d-06e3-483b-b5af-69bc16bc4cf9","meta":{"profile":["http://hl7.org/fhir/us/qicore/StructureDefinition/qicore-condition"]},"clinicalStatus":{"coding":[{"system":"http://terminology.hl7.org/CodeSystem/condition-clinical","code":"active","display":"active","userSelected":true}]},"category":[{"coding":[{"system":"http://terminology.hl7.org/CodeSystem/condition-category","code":"problem-list-item","display":"Problem List Item"},{"system":"http://snomed.info/sct","code":"439401001","display":"Diagnosis"}]}],"code":{"coding":[{"system":"http://snomed.info/sct","version":"2022-03","code":"127014009","display":"Peripheral angiopathy due to diabetes mellitus (disorder)","userSelected":true}]},"subject":{"reference":"Patient/cbb6a940-7c9b-4d80-b9be-39a029f6f0b0"},"onsetPeriod":{"start":"2025-12-31T08:00:00.000+00:00"}},"request":{"method":"PUT","url":"Condition/4d818d4d-06e3-483b-b5af-69bc16bc4cf9"}},{"fullUrl":"https://madie.cms.gov/MedicationRequest/low-intensity-statin-therapy-6c14","resource":{"resourceType":"MedicationRequest","id":"fcb40ac4-274c-4778-90d9-29e1205b5253","meta":{"profile":["http://hl7.org/fhir/us/qicore/StructureDefinition/qicore-mednotrequested"]},"status":"completed","intent":"order","doNotPerform":true,"medicationCodeableConcept":{"coding":[{"system":"http://www.nlm.nih.gov/research/umls/rxnorm","code":"1790679","display":"simvastatin 4 MG/ML Oral Suspension","userSelected":true}]},"subject":{"reference":"Patient/cbb6a940-7c9b-4d80-b9be-39a029f6f0b0"},"authoredOn":"2025-01-01T08:00:00.000+00:00","requester":{"reference":"Practitioner/example","display":"Patrick Pump"},"reasonCode":[{"coding":[{"system":"http://snomed.info/sct","code":"183932001","display":"Procedure contraindicated (situation)","userSelected":true}]}]},"request":{"method":"PUT","url":"MedicationRequest/fcb40ac4-274c-4778-90d9-29e1205b5253"}},{"fullUrl":"https://madie.cms.gov/Encounter/encounter-inpatient-35cc","resource":{"resourceType":"Encounter","id":"78fb43cd-bac4-4ef7-8893-765db0eb6d81","meta":{"profile":["http://hl7.org/fhir/us/qicore/StructureDefinition/qicore-encounter"]},"status":"finished","class":{"system":"http://terminology.hl7.org/CodeSystem/v3-ActCode","code":"IMP","display":"inpatient"},"type":[{"coding":[{"system":"http://snomed.info/sct","version":"2022-03","code":"183452005","display":"Emergency hospital admission (procedure)","userSelected":true}]}],"subject":{"reference":"Patient/cbb6a940-7c9b-4d80-b9be-39a029f6f0b0"},"period":{"start":"2025-07-21T08:00:00.000+00:00","end":"2025-07-25T08:15:00.000+00:00"},"hospitalization":{"dischargeDisposition":{"coding":[{"system":"http://snomed.info/sct","code":"428371000124100","display":"Discharge to healthcare facility for hospice care (procedure)","userSelected":true}]}}},"request":{"method":"PUT","url":"Encounter/78fb43cd-bac4-4ef7-8893-765db0eb6d81"}},{"fullUrl":"https://madie.cms.gov/Coverage/1","resource":{"resourceType":"Coverage","id":"fa0f2603-c211-4a13-b5ce-28d421d3a877","meta":{"profile":["http://hl7.org/fhir/us/qicore/StructureDefinition/qicore-coverage"]},"status":"active","beneficiary":{"reference":"Patient/cbb6a940-7c9b-4d80-b9be-39a029f6f0b0"},"payor":[{"reference":"Organization/4b5a882f-1f43-485c-85c6-f5ad2337d5b1"}]},"request":{"method":"PUT","url":"Coverage/fa0f2603-c211-4a13-b5ce-28d421d3a877"}},{"fullUrl":"https://madie.cms.gov/Organization/123456","resource":{"resourceType":"Organization","id":"4b5a882f-1f43-485c-85c6-f5ad2337d5b1","meta":{"profile":["http://hl7.org/fhir/us/qicore/StructureDefinition/qicore-organization"]},"identifier":[{"use":"temp","system":"urn:oid:2.16.840.1.113883.4.4","value":"21-3259825"}],"active":true,"type":[{"coding":[{"system":"http://terminology.hl7.org/CodeSystem/organization-type","code":"pay","display":"Payer"}]}],"name":"Blue Cross Blue Shield of Texas","telecom":[{"system":"phone","value":"(+1) 972-766-6900"}],"address":[{"use":"billing","type":"postal","line":["P.O. Box 660044"],"city":"Dallas","state":"TX","postalCode":"75266-0044","country":"USA"}]},"request":{"method":"PUT","url":"Organization/4b5a882f-1f43-485c-85c6-f5ad2337d5b1"}},{"fullUrl":"https://madie.cms.gov/MeasureReport/abd654c4-f9e4-4a54-b3bd-98203b4e937f","resource":{"resourceType":"MeasureReport","id":"abd654c4-f9e4-4a54-b3bd-98203b4e937f","meta":{"profile":["http://hl7.org/fhir/us/cqfmeasures/StructureDefinition/test-case-cqfm"]},"contained":[{"resourceType":"Parameters","id":"c765dc34-2611-43aa-85ca-d3764f7e464d-parameters","parameter":[{"name":"subject","valueString":"cbb6a940-7c9b-4d80-b9be-39a029f6f0b0"}]}],"extension":[{"url":"http://hl7.org/fhir/us/cqfmeasures/StructureDefinition/cqfm-inputParameters","valueReference":{"reference":"#c765dc34-2611-43aa-85ca-d3764f7e464d-parameters"}},{"url":"http://hl7.org/fhir/us/cqfmeasures/StructureDefinition/cqfm-testCaseDescription","valueMarkdown":"Amb enc. first day of MP, atherosclerosis since last day of prior year, inpatient encounter in July where pt was discharged to a facility for hospice care. "}],"modifierExtension":[{"url":"http://hl7.org/fhir/us/cqfmeasures/StructureDefinition/cqfm-isTestCase","valueBoolean":true}],"status":"complete","type":"individual","measure":"https://madie.cms.gov/Measure/StatinTherapyforthePreventionandTreatmentofCardiovascularDiseaseFHIR","period":{"start":"2025-01-01","end":"2025-12-31"},"group":[{"population":[{"code":{"coding":[{"system":"http://terminology.hl7.org/CodeSystem/measure-population","code":"initial-population","display":"Initial Population"}]},"count":1},{"code":{"coding":[{"system":"http://terminology.hl7.org/CodeSystem/measure-population","code":"denominator","display":"Denominator"}]},"count":1},{"code":{"coding":[{"system":"http://terminology.hl7.org/CodeSystem/measure-population","code":"denominator-exclusion","display":"Denominator Exclusion"}]},"count":0},{"code":{"coding":[{"system":"http://terminology.hl7.org/CodeSystem/measure-population","code":"numerator","display":"Numerator"}]},"count":0},{"code":{"coding":[{"system":"http://terminology.hl7.org/CodeSystem/measure-population","code":"denominator-exception","display":"Denominator Exception"}]},"count":1}]},{"population":[{"code":{"coding":[{"system":"http://terminology.hl7.org/CodeSystem/measure-population","code":"initial-population","display":"Initial Population"}]},"count":0},{"code":{"coding":[{"system":"http://terminology.hl7.org/CodeSystem/measure-population","code":"denominator","display":"Denominator"}]},"count":0},{"code":{"coding":[{"system":"http://terminology.hl7.org/CodeSystem/measure-population","code":"denominator-exclusion","display":"Denominator Exclusion"}]},"count":0},{"code":{"coding":[{"system":"http://terminology.hl7.org/CodeSystem/measure-population","code":"numerator","display":"Numerator"}]},"count":0},{"code":{"coding":[{"system":"http://terminology.hl7.org/CodeSystem/measure-population","code":"denominator-exception","display":"Denominator Exception"}]},"count":0}]},{"population":[{"code":{"coding":[{"system":"http://terminology.hl7.org/CodeSystem/measure-population","code":"initial-population","display":"Initial Population"}]},"count":0},{"code":{"coding":[{"system":"http://terminology.hl7.org/CodeSystem/measure-population","code":"denominator","display":"Denominator"}]},"count":0},{"code":{"coding":[{"system":"http://terminology.hl7.org/CodeSystem/measure-population","code":"denominator-exclusion","display":"Denominator Exclusion"}]},"count":0},{"code":{"coding":[{"system":"http://terminology.hl7.org/CodeSystem/measure-population","code":"numerator","display":"Numerator"}]},"count":0},{"code":{"coding":[{"system":"http://terminology.hl7.org/CodeSystem/measure-population","code":"denominator-exception","display":"Denominator Exception"}]},"count":0}]},{"population":[{"code":{"coding":[{"system":"http://terminology.hl7.org/CodeSystem/measure-population","code":"initial-population","display":"Initial Population"}]},"count":0},{"code":{"coding":[{"system":"http://terminology.hl7.org/CodeSystem/measure-population","code":"denominator","display":"Denominator"}]},"count":0},{"code":{"coding":[{"system":"http://terminology.hl7.org/CodeSystem/measure-population","code":"denominator-exclusion","display":"Denominator Exclusion"}]},"count":0},{"code":{"coding":[{"system":"http://terminology.hl7.org/CodeSystem/measure-population","code":"numerator","display":"Numerator"}]},"count":0},{"code":{"coding":[{"system":"http://terminology.hl7.org/CodeSystem/measure-population","code":"denominator-exception","display":"Denominator Exception"}]},"count":0}]}]},"request":{"method":"PUT","url":"MeasureReport/abd654c4-f9e4-4a54-b3bd-98203b4e937f"}}]}