{"resourceType":"Bundle","id":"tests-35d9e119-50ef-4df1-b303-f348596657ad-bundle","type":"transaction","entry":[{"fullUrl":"https://madie.cms.gov/Patient/35d9e119-50ef-4df1-b303-f348596657ad","resource":{"resourceType":"Patient","id":"35d9e119-50ef-4df1-b303-f348596657ad","meta":{"profile":["http://hl7.org/fhir/us/qicore/StructureDefinition/qicore-patient"]},"extension":[{"url":"http://hl7.org/fhir/us/core/StructureDefinition/us-core-race","extension":[{"url":"ombCategory","valueCoding":{"system":"urn:oid:2.16.840.1.113883.6.238","code":"1002-5","display":"American Indian or Alaska Native","userSelected":true}},{"url":"text","valueString":"American Indian or Alaska Native"}]},{"url":"http://hl7.org/fhir/us/core/StructureDefinition/us-core-ethnicity","extension":[{"url":"ombCategory","valueCoding":{"system":"urn:oid:2.16.840.1.113883.6.238","code":"2135-2","display":"Hispanic or Latino","userSelected":true}},{"url":"text","valueString":"Hispanic or Latino"}]}],"identifier":[{"type":{"coding":[{"system":"http://terminology.hl7.org/CodeSystem/v2-0203","code":"MR"}]},"system":"https://bonnie-fhir.healthit.gov/","value":"64502b4a51de4e56b7e15edee"}],"name":[{"family":"NUMERPop4Pass","given":["PrescribedModStatin"]}],"gender":"male","birthDate":"1982-01-01"},"request":{"method":"PUT","url":"Patient/35d9e119-50ef-4df1-b303-f348596657ad"}},{"fullUrl":"https://madie.cms.gov/Encounter/preventive-care-services-established-office-visit-18-and-up-6c1a","resource":{"resourceType":"Encounter","id":"cd0f7dab-3dd6-4d83-931c-1b4eafc50b92","meta":{"profile":["http://hl7.org/fhir/us/qicore/StructureDefinition/qicore-encounter"]},"status":"finished","class":{"system":"http://terminology.hl7.org/CodeSystem/v3-ActCode","code":"AMB","display":"ambulatory"},"type":[{"coding":[{"system":"http://www.ama-assn.org/go/cpt","version":"2021","code":"99395","display":"Periodic comprehensive preventive medicine reevaluation and management of an individual including an age and gender appropriate history, examination, counseling/anticipatory guidance/risk factor reduction interventions, and the ordering of laboratory/diagnostic procedures, established patient; 18-39 years","userSelected":true}]}],"subject":{"reference":"Patient/35d9e119-50ef-4df1-b303-f348596657ad"},"period":{"start":"2025-12-31T23:30:00.000+00:00","end":"2025-12-31T23:59:00.000+00:00"}},"request":{"method":"PUT","url":"Encounter/cd0f7dab-3dd6-4d83-931c-1b4eafc50b92"}},{"fullUrl":"https://madie.cms.gov/MedicationRequest/moderate-intensity-statin-therapy-35c7","resource":{"resourceType":"MedicationRequest","id":"408c83f9-0f75-4361-b0fb-f339a18f2d8f","meta":{"profile":["http://hl7.org/fhir/us/qicore/StructureDefinition/qicore-medicationrequest"]},"status":"active","intent":"order","doNotPerform":false,"medicationCodeableConcept":{"coding":[{"system":"http://www.nlm.nih.gov/research/umls/rxnorm","version":"2022-06","code":"312961","display":"simvastatin 20 MG Oral Tablet","userSelected":true}]},"subject":{"reference":"Patient/35d9e119-50ef-4df1-b303-f348596657ad"},"authoredOn":"2025-12-31T23:40:00.000+00:00","requester":{"reference":"Practitioner/example"},"dosageInstruction":[{"timing":{"event":["2025-12-31T08:00:00.000+00:00"],"repeat":{"boundsPeriod":{"start":"2025-12-31T23:40:00.000+00:00","end":"2026-06-24T08:00:00.000+00:00"},"count":1,"when":["AC"]}}}]},"request":{"method":"PUT","url":"MedicationRequest/408c83f9-0f75-4361-b0fb-f339a18f2d8f"}},{"fullUrl":"https://madie.cms.gov/Condition/myocardial-infarction-f0f8","resource":{"resourceType":"Condition","id":"91bd5f2e-d134-479b-a75d-8720cb4c7b6f","meta":{"profile":["http://hl7.org/fhir/us/qicore/StructureDefinition/qicore-condition"]},"clinicalStatus":{"coding":[{"system":"http://terminology.hl7.org/CodeSystem/condition-clinical","code":"active","display":"active","userSelected":true}]},"verificationStatus":{"coding":[{"system":"http://terminology.hl7.org/CodeSystem/condition-ver-status","code":"confirmed","display":"confirmed","userSelected":true}]},"category":[{"coding":[{"system":"http://terminology.hl7.org/CodeSystem/condition-category","code":"problem-list-item","display":"Problem List Item"}]}],"code":{"coding":[{"system":"http://snomed.info/sct","version":"2022-03","code":"10273003","display":"Acute infarction of papillary muscle (disorder)","userSelected":true}]},"subject":{"reference":"Patient/35d9e119-50ef-4df1-b303-f348596657ad"},"onsetPeriod":{"start":"2013-06-24T08:00:00.000+00:00"},"recordedDate":"2025-04-01T08:15:00.000+00:00"},"request":{"method":"PUT","url":"Condition/91bd5f2e-d134-479b-a75d-8720cb4c7b6f"}},{"fullUrl":"https://madie.cms.gov/Observation/cardiovascular-disease-10y-risk-likelihood-5edf","resource":{"resourceType":"Observation","id":"89040301-787d-45be-ae47-663a5c9ee483","meta":{"profile":["http://hl7.org/fhir/us/qicore/StructureDefinition/qicore-observation"]},"status":"final","category":[{"coding":[{"system":"http://terminology.hl7.org/CodeSystem/observation-category","code":"procedure","display":"Procedure"}]}],"code":{"coding":[{"system":"http://loinc.org","code":"99055-6","display":"Cardiovascular disease 10Y risk [Likelihood]","userSelected":true}]},"subject":{"reference":"Patient/35d9e119-50ef-4df1-b303-f348596657ad"}},"request":{"method":"PUT","url":"Observation/89040301-787d-45be-ae47-663a5c9ee483"}},{"fullUrl":"https://madie.cms.gov/Observation/cardiovascular-disease-10y-risk-likelihood-5ee0","resource":{"resourceType":"Observation","id":"04750d33-5d9f-478a-b71c-717143bc5e6b","meta":{"profile":["http://hl7.org/fhir/us/qicore/StructureDefinition/qicore-observation"]},"status":"final","category":[{"coding":[{"system":"http://terminology.hl7.org/CodeSystem/observation-category","code":"procedure","display":"Procedure"}]}],"code":{"coding":[{"system":"http://loinc.org","code":"99055-6","display":"Cardiovascular disease 10Y risk [Likelihood]","userSelected":true}]},"subject":{"reference":"Patient/35d9e119-50ef-4df1-b303-f348596657ad"},"effectiveDateTime":"2025-12-31T08:00:00.000+00:00","valueQuantity":{"value":20.0,"unit":"%","system":"http://unitsofmeasure.org","code":"%"}},"request":{"method":"PUT","url":"Observation/04750d33-5d9f-478a-b71c-717143bc5e6b"}},{"fullUrl":"https://madie.cms.gov/Coverage/1","resource":{"resourceType":"Coverage","id":"8316b8b1-1b1e-40d1-b9f1-e53cc42318b4","meta":{"profile":["http://hl7.org/fhir/us/qicore/StructureDefinition/qicore-coverage"]},"status":"active","beneficiary":{"reference":"Patient/35d9e119-50ef-4df1-b303-f348596657ad"},"payor":[{"reference":"Organization/024e2731-b045-43bf-80d2-684774c5b51c"}]},"request":{"method":"PUT","url":"Coverage/8316b8b1-1b1e-40d1-b9f1-e53cc42318b4"}},{"fullUrl":"https://madie.cms.gov/Organization/123456","resource":{"resourceType":"Organization","id":"024e2731-b045-43bf-80d2-684774c5b51c","meta":{"profile":["http://hl7.org/fhir/us/qicore/StructureDefinition/qicore-organization"]},"identifier":[{"use":"temp","system":"urn:oid:2.16.840.1.113883.4.4","value":"21-3259825"}],"active":true,"type":[{"coding":[{"system":"http://terminology.hl7.org/CodeSystem/organization-type","code":"pay","display":"Payer"}]}],"name":"Blue Cross Blue Shield of Texas","telecom":[{"system":"phone","value":"(+1) 972-766-6900"}],"address":[{"use":"billing","type":"postal","line":["P.O. Box 660044"],"city":"Dallas","state":"TX","postalCode":"75266-0044","country":"USA"}]},"request":{"method":"PUT","url":"Organization/024e2731-b045-43bf-80d2-684774c5b51c"}},{"fullUrl":"https://madie.cms.gov/Practitioner/practitioner-123456","resource":{"resourceType":"Practitioner","id":"cbf226f2-cb73-485b-8b08-d65595439f50","meta":{"profile":["http://hl7.org/fhir/us/qicore/StructureDefinition/qicore-practitioner"]},"identifier":[{"system":"http://hl7.org/fhir/sid/us-npi","value":"123456"}],"name":[{"family":"Evil","prefix":["Dr"]}]},"request":{"method":"PUT","url":"Practitioner/cbf226f2-cb73-485b-8b08-d65595439f50"}},{"fullUrl":"https://madie.cms.gov/MeasureReport/f81f9478-d556-44ff-9a89-fcd77d02e209","resource":{"resourceType":"MeasureReport","id":"f81f9478-d556-44ff-9a89-fcd77d02e209","meta":{"profile":["http://hl7.org/fhir/us/cqfmeasures/StructureDefinition/test-case-cqfm"]},"contained":[{"resourceType":"Parameters","id":"e65feb9e-2aed-41e9-8226-a6069a40bb9d-parameters","parameter":[{"name":"subject","valueString":"35d9e119-50ef-4df1-b303-f348596657ad"}]}],"extension":[{"url":"http://hl7.org/fhir/us/cqfmeasures/StructureDefinition/cqfm-inputParameters","valueReference":{"reference":"#e65feb9e-2aed-41e9-8226-a6069a40bb9d-parameters"}},{"url":"http://hl7.org/fhir/us/cqfmeasures/StructureDefinition/cqfm-testCaseDescription","valueMarkdown":"Enc. 12/31, 2330-2359 during MP.,  MI in 2013, moderate statin, ASVD risk estimator = 20.  Because pt has ASCVD he is not considered in pop 4. "}],"modifierExtension":[{"url":"http://hl7.org/fhir/us/cqfmeasures/StructureDefinition/cqfm-isTestCase","valueBoolean":true}],"status":"complete","type":"individual","measure":"https://madie.cms.gov/Measure/StatinTherapyforthePreventionandTreatmentofCardiovascularDiseaseFHIR","period":{"start":"2025-01-01","end":"2025-12-31"},"group":[{"population":[{"code":{"coding":[{"system":"http://terminology.hl7.org/CodeSystem/measure-population","code":"initial-population","display":"Initial Population"}]},"count":1},{"code":{"coding":[{"system":"http://terminology.hl7.org/CodeSystem/measure-population","code":"denominator","display":"Denominator"}]},"count":1},{"code":{"coding":[{"system":"http://terminology.hl7.org/CodeSystem/measure-population","code":"denominator-exclusion","display":"Denominator Exclusion"}]},"count":0},{"code":{"coding":[{"system":"http://terminology.hl7.org/CodeSystem/measure-population","code":"numerator","display":"Numerator"}]},"count":1},{"code":{"coding":[{"system":"http://terminology.hl7.org/CodeSystem/measure-population","code":"denominator-exception","display":"Denominator Exception"}]},"count":0}]},{"population":[{"code":{"coding":[{"system":"http://terminology.hl7.org/CodeSystem/measure-population","code":"initial-population","display":"Initial Population"}]},"count":0},{"code":{"coding":[{"system":"http://terminology.hl7.org/CodeSystem/measure-population","code":"denominator","display":"Denominator"}]},"count":0},{"code":{"coding":[{"system":"http://terminology.hl7.org/CodeSystem/measure-population","code":"denominator-exclusion","display":"Denominator Exclusion"}]},"count":0},{"code":{"coding":[{"system":"http://terminology.hl7.org/CodeSystem/measure-population","code":"numerator","display":"Numerator"}]},"count":0},{"code":{"coding":[{"system":"http://terminology.hl7.org/CodeSystem/measure-population","code":"denominator-exception","display":"Denominator Exception"}]},"count":0}]},{"population":[{"code":{"coding":[{"system":"http://terminology.hl7.org/CodeSystem/measure-population","code":"initial-population","display":"Initial Population"}]},"count":0},{"code":{"coding":[{"system":"http://terminology.hl7.org/CodeSystem/measure-population","code":"denominator","display":"Denominator"}]},"count":0},{"code":{"coding":[{"system":"http://terminology.hl7.org/CodeSystem/measure-population","code":"denominator-exclusion","display":"Denominator Exclusion"}]},"count":0},{"code":{"coding":[{"system":"http://terminology.hl7.org/CodeSystem/measure-population","code":"numerator","display":"Numerator"}]},"count":0},{"code":{"coding":[{"system":"http://terminology.hl7.org/CodeSystem/measure-population","code":"denominator-exception","display":"Denominator Exception"}]},"count":0}]},{"population":[{"code":{"coding":[{"system":"http://terminology.hl7.org/CodeSystem/measure-population","code":"initial-population","display":"Initial Population"}]},"count":0},{"code":{"coding":[{"system":"http://terminology.hl7.org/CodeSystem/measure-population","code":"denominator","display":"Denominator"}]},"count":0},{"code":{"coding":[{"system":"http://terminology.hl7.org/CodeSystem/measure-population","code":"denominator-exclusion","display":"Denominator Exclusion"}]},"count":0},{"code":{"coding":[{"system":"http://terminology.hl7.org/CodeSystem/measure-population","code":"numerator","display":"Numerator"}]},"count":0},{"code":{"coding":[{"system":"http://terminology.hl7.org/CodeSystem/measure-population","code":"denominator-exception","display":"Denominator Exception"}]},"count":0}]}]},"request":{"method":"PUT","url":"MeasureReport/f81f9478-d556-44ff-9a89-fcd77d02e209"}}]}