{
  "resourceType": "Bundle",
  "id": "60f82c3098086b570510e2ce",
  "type": "transaction",
  "entry": [ {
    "fullUrl": "https://madie.cms.gov/Patient/2dc3e469-a1c6-4419-aecc-72e75dc8507b",
    "resource": {
      "resourceType": "Patient",
      "id": "2dc3e469-a1c6-4419-aecc-72e75dc8507b",
      "meta": {
        "profile": [ "http://hl7.org/fhir/us/qicore/StructureDefinition/qicore-patient" ]
      },
      "text": {
        "status": "generated",
        "div": "<div xmlns=\"http://www.w3.org/1999/xhtml\"><div class=\"hapiHeaderText\">LCG3ENC <b>DENEXPASS3 </b></div><table class=\"hapiPropertyTable\"><tbody><tr><td>Date of birth</td><td><span>09 February 1949</span></td></tr></tbody></table></div>"
      },
      "extension": [ {
        "url": "http://hl7.org/fhir/us/core/StructureDefinition/us-core-race",
        "extension": [ {
          "url": "ombCategory",
          "valueCoding": {
            "system": "urn:oid:2.16.840.1.113883.6.238",
            "code": "2106-3",
            "display": "White",
            "userSelected": true
          }
        }, {
          "url": "text",
          "valueString": "White"
        } ]
      }, {
        "url": "http://hl7.org/fhir/us/core/StructureDefinition/us-core-ethnicity",
        "extension": [ {
          "url": "ombCategory",
          "valueCoding": {
            "system": "urn:oid:2.16.840.1.113883.6.238",
            "code": "2186-5",
            "display": "Not Hispanic or Latino",
            "userSelected": true
          }
        }, {
          "url": "text",
          "valueString": "Not Hispanic or Latino"
        } ]
      } ],
      "identifier": [ {
        "type": {
          "coding": [ {
            "system": "http://terminology.hl7.org/CodeSystem/v2-0203",
            "code": "MR"
          } ]
        },
        "system": "https://bonnie-fhir.healthit.gov/",
        "value": "60f82c3098086b570510e2ce"
      } ],
      "active": true,
      "name": [ {
        "use": "usual",
        "family": "DENEXPass3",
        "given": [ "LCG3ENC" ]
      } ],
      "gender": "male",
      "birthDate": "1949-02-09"
    },
    "request": {
      "method": "PUT",
      "url": "Patient/2dc3e469-a1c6-4419-aecc-72e75dc8507b"
    }
  }, {
    "fullUrl": "https://madie.cms.gov/Condition/5e444de83afe5d000044c85a",
    "resource": {
      "resourceType": "Condition",
      "id": "5e444de83afe5d000044c85a",
      "meta": {
        "profile": [ "http://hl7.org/fhir/us/qicore/StructureDefinition/qicore-condition" ]
      },
      "clinicalStatus": {
        "coding": [ {
          "system": "http://terminology.hl7.org/CodeSystem/condition-clinical",
          "code": "inactive",
          "display": "Inactive",
          "userSelected": true
        } ]
      },
      "verificationStatus": {
        "coding": [ {
          "system": "http://terminology.hl7.org/CodeSystem/condition-ver-status",
          "code": "confirmed",
          "display": "confirmed",
          "userSelected": true
        } ]
      },
      "category": [ {
        "coding": [ {
          "system": "http://terminology.hl7.org/CodeSystem/condition-category",
          "code": "encounter-diagnosis",
          "display": "Encounter Diagnosis"
        } ]
      } ],
      "code": {
        "coding": [ {
          "system": "http://hl7.org/fhir/sid/icd-10-cm",
          "code": "Z92.82"
        } ]
      },
      "subject": {
        "reference": "Patient/2dc3e469-a1c6-4419-aecc-72e75dc8507b"
      },
      "onsetDateTime": "2025-03-11T09:00:00+00:00",
      "abatementDateTime": "2025-04-01T08:15:00+00:00",
      "recordedDate": "2025-03-11T09:00:00+00:00"
    },
    "request": {
      "method": "PUT",
      "url": "Condition/5e444de83afe5d000044c85a"
    }
  }, {
    "fullUrl": "https://madie.cms.gov/Encounter/5e444b753afe5d000044c598",
    "resource": {
      "resourceType": "Encounter",
      "id": "5e444b753afe5d000044c598",
      "meta": {
        "profile": [ "http://hl7.org/fhir/us/qicore/StructureDefinition/qicore-encounter" ]
      },
      "status": "finished",
      "class": {
        "system": "http://terminology.hl7.org/CodeSystem/v3-ActCode",
        "code": "EMER",
        "display": "emergency"
      },
      "type": [ {
        "coding": [ {
          "system": "http://snomed.info/sct",
          "code": "4525004"
        } ]
      } ],
      "subject": {
        "reference": "Patient/2dc3e469-a1c6-4419-aecc-72e75dc8507b"
      },
      "period": {
        "start": "2025-02-12T08:00:00+00:00",
        "end": "2025-02-12T20:15:00+00:00"
      },
      "diagnosis": [ {
        "condition": {
          "reference": "Condition/ischemic-stroke-7d3c"
        },
        "use": {
          "coding": [ {
            "system": "http://snomed.info/sct",
            "code": "52201006",
            "display": "Internal capsule hemorrhage (disorder)"
          } ]
        }
      } ]
    },
    "request": {
      "method": "PUT",
      "url": "Encounter/5e444b753afe5d000044c598"
    }
  }, {
    "fullUrl": "https://madie.cms.gov/Encounter/5e444bb53afe5d000044c5b7",
    "resource": {
      "resourceType": "Encounter",
      "id": "5e444bb53afe5d000044c5b7",
      "meta": {
        "profile": [ "http://hl7.org/fhir/us/qicore/StructureDefinition/qicore-encounter" ]
      },
      "status": "finished",
      "class": {
        "system": "http://terminology.hl7.org/CodeSystem/v3-ActCode",
        "code": "IMP",
        "display": "inpatient encounter"
      },
      "type": [ {
        "coding": [ {
          "system": "http://snomed.info/sct",
          "code": "183452005"
        } ]
      } ],
      "subject": {
        "reference": "Patient/2dc3e469-a1c6-4419-aecc-72e75dc8507b"
      },
      "period": {
        "start": "2025-03-01T05:00:00+00:00",
        "end": "2025-03-01T11:15:00+00:00"
      },
      "diagnosis": [ {
        "condition": {
          "reference": "Condition/ischemic-stroke-7d3a"
        },
        "use": {
          "coding": [ {
            "system": "http://snomed.info/sct",
            "code": "230690007",
            "display": "Cerebrovascular accident (disorder)"
          } ]
        },
        "rank": 1
      } ]
    },
    "request": {
      "method": "PUT",
      "url": "Encounter/5e444bb53afe5d000044c5b7"
    }
  }, {
    "fullUrl": "https://madie.cms.gov/Encounter/5e444ccb3afe5d000044c65b",
    "resource": {
      "resourceType": "Encounter",
      "id": "5e444ccb3afe5d000044c65b",
      "meta": {
        "profile": [ "http://hl7.org/fhir/us/qicore/StructureDefinition/qicore-encounter" ]
      },
      "status": "finished",
      "class": {
        "system": "http://terminology.hl7.org/CodeSystem/v3-ActCode",
        "code": "OBSENC",
        "display": "observation encounter"
      },
      "type": [ {
        "coding": [ {
          "system": "http://snomed.info/sct",
          "code": "448851000124103"
        } ]
      } ],
      "subject": {
        "reference": "Patient/2dc3e469-a1c6-4419-aecc-72e75dc8507b"
      },
      "period": {
        "start": "2025-03-01T13:00:00+00:00",
        "end": "2025-03-01T23:15:00+00:00"
      }
    },
    "request": {
      "method": "PUT",
      "url": "Encounter/5e444ccb3afe5d000044c65b"
    }
  }, {
    "fullUrl": "https://madie.cms.gov/Encounter/5e444ce03afe5d000044c684",
    "resource": {
      "resourceType": "Encounter",
      "id": "5e444ce03afe5d000044c684",
      "meta": {
        "profile": [ "http://hl7.org/fhir/us/qicore/StructureDefinition/qicore-encounter" ]
      },
      "status": "finished",
      "class": {
        "system": "http://terminology.hl7.org/CodeSystem/v3-ActCode",
        "code": "IMP",
        "display": "inpatient encounter"
      },
      "type": [ {
        "coding": [ {
          "system": "http://snomed.info/sct",
          "code": "183452005"
        } ]
      } ],
      "subject": {
        "reference": "Patient/2dc3e469-a1c6-4419-aecc-72e75dc8507b"
      },
      "period": {
        "start": "2025-03-02T13:00:00+00:00",
        "end": "2025-03-09T11:15:00+00:00"
      },
      "diagnosis": [ {
        "condition": {
          "reference": "Condition/ischemic-stroke-7d3b"
        }
      } ]
    },
    "request": {
      "method": "PUT",
      "url": "Encounter/5e444ce03afe5d000044c684"
    }
  }, {
    "fullUrl": "https://madie.cms.gov/Encounter/5e444d2a3afe5d000044c6f1",
    "resource": {
      "resourceType": "Encounter",
      "id": "5e444d2a3afe5d000044c6f1",
      "meta": {
        "profile": [ "http://hl7.org/fhir/us/qicore/StructureDefinition/qicore-encounter" ]
      },
      "status": "finished",
      "class": {
        "system": "http://terminology.hl7.org/CodeSystem/v3-ActCode",
        "code": "EMER",
        "display": "emergency"
      },
      "type": [ {
        "coding": [ {
          "system": "http://snomed.info/sct",
          "code": "4525004"
        } ]
      } ],
      "subject": {
        "reference": "Patient/2dc3e469-a1c6-4419-aecc-72e75dc8507b"
      },
      "period": {
        "start": "2025-03-11T08:00:00.000+00:00",
        "end": "2025-03-11T08:15:00.000+00:00"
      },
      "diagnosis": [ {
        "condition": {
          "reference": "Condition/ischemic-stroke-7d3c"
        },
        "use": {
          "coding": [ {
            "system": "http://snomed.info/sct",
            "code": "230691006",
            "display": "Cerebrovascular accident due to occlusion of cerebral artery (disorder)"
          } ]
        },
        "rank": 1
      } ]
    },
    "request": {
      "method": "PUT",
      "url": "Encounter/5e444d2a3afe5d000044c6f1"
    }
  }, {
    "fullUrl": "https://madie.cms.gov/Encounter/5e444d703afe5d000044c78c",
    "resource": {
      "resourceType": "Encounter",
      "id": "5e444d703afe5d000044c78c",
      "meta": {
        "profile": [ "http://hl7.org/fhir/us/qicore/StructureDefinition/qicore-encounter" ]
      },
      "status": "finished",
      "class": {
        "system": "http://terminology.hl7.org/CodeSystem/v3-ActCode",
        "code": "IMP",
        "display": "inpatient encounter"
      },
      "type": [ {
        "coding": [ {
          "system": "http://snomed.info/sct",
          "code": "183452005"
        } ]
      } ],
      "subject": {
        "reference": "Patient/2dc3e469-a1c6-4419-aecc-72e75dc8507b"
      },
      "period": {
        "start": "2025-03-11T09:00:00+00:00",
        "end": "2025-04-01T08:15:00+00:00"
      },
      "diagnosis": [ {
        "condition": {
          "reference": "Condition/ischemic-stroke-7d3d"
        },
        "use": {
          "coding": [ {
            "system": "http://snomed.info/sct",
            "code": "230691006",
            "display": "Cerebrovascular accident due to occlusion of cerebral artery (disorder)"
          } ]
        },
        "rank": 1
      } ],
      "hospitalization": {
        "dischargeDisposition": {
          "coding": [ {
            "system": "http://snomed.info/sct",
            "code": "428371000124100",
            "display": "Discharge to healthcare facility for hospice care (procedure)"
          } ]
        }
      }
    },
    "request": {
      "method": "PUT",
      "url": "Encounter/5e444d703afe5d000044c78c"
    }
  }, {
    "fullUrl": "https://madie.cms.gov/Encounter/5e444e8c3afe5d000044c8f1",
    "resource": {
      "resourceType": "Encounter",
      "id": "5e444e8c3afe5d000044c8f1",
      "meta": {
        "profile": [ "http://hl7.org/fhir/us/qicore/StructureDefinition/qicore-encounter" ]
      },
      "status": "finished",
      "class": {
        "system": "http://terminology.hl7.org/CodeSystem/v3-ActCode",
        "code": "IMP",
        "display": "inpatient encounter"
      },
      "type": [ {
        "coding": [ {
          "system": "http://snomed.info/sct",
          "code": "183452005"
        } ]
      } ],
      "subject": {
        "reference": "Patient/2dc3e469-a1c6-4419-aecc-72e75dc8507b"
      },
      "period": {
        "start": "2025-04-02T08:00:00+00:00",
        "end": "2025-04-02T08:15:00+00:00"
      },
      "diagnosis": [ {
        "condition": {
          "reference": "Condition/ischemic-stroke-7d3c"
        },
        "use": {
          "coding": [ {
            "system": "http://snomed.info/sct",
            "code": "116288000",
            "display": "Paralytic stroke (disorder)"
          } ]
        },
        "rank": 1
      } ]
    },
    "request": {
      "method": "PUT",
      "url": "Encounter/5e444e8c3afe5d000044c8f1"
    }
  }, {
    "fullUrl": "https://madie.cms.gov/ServiceRequest/5e444d1f3afe5d000044c6df",
    "resource": {
      "resourceType": "ServiceRequest",
      "id": "5e444d1f3afe5d000044c6df",
      "meta": {
        "profile": [ "http://hl7.org/fhir/us/qicore/StructureDefinition/qicore-servicerequest" ]
      },
      "status": "active",
      "intent": "order",
      "code": {
        "coding": [ {
          "system": "http://snomed.info/sct",
          "code": "133918004"
        } ]
      },
      "subject": {
        "reference": "Patient/2dc3e469-a1c6-4419-aecc-72e75dc8507b"
      },
      "authoredOn": "2025-03-02T13:00:00+00:00"
    },
    "request": {
      "method": "PUT",
      "url": "ServiceRequest/5e444d1f3afe5d000044c6df"
    }
  }, {
    "fullUrl": "https://madie.cms.gov/Observation/5e444bf63afe5d000044c5f7",
    "resource": {
      "resourceType": "Observation",
      "id": "5e444bf63afe5d000044c5f7",
      "meta": {
        "profile": [ "http://hl7.org/fhir/us/qicore/StructureDefinition/qicore-observation" ]
      },
      "status": "final",
      "category": [ {
        "coding": [ {
          "system": "http://terminology.hl7.org/CodeSystem/observation-category",
          "code": "laboratory",
          "display": "Laboratory"
        } ]
      } ],
      "code": {
        "coding": [ {
          "system": "http://loinc.org",
          "code": "34714-6"
        } ]
      },
      "subject": {
        "reference": "Patient/2dc3e469-a1c6-4419-aecc-72e75dc8507b"
      },
      "effectivePeriod": {
        "start": "2025-03-01T05:00:00+00:00",
        "end": "2025-03-01T11:15:00+00:00"
      },
      "issued": "2025-03-01T05:00:00.000+00:00",
      "valueQuantity": {
        "value": 2.5
      }
    },
    "request": {
      "method": "PUT",
      "url": "Observation/5e444bf63afe5d000044c5f7"
    }
  }, {
    "fullUrl": "https://madie.cms.gov/Observation/5e444dc33afe5d000044c832",
    "resource": {
      "resourceType": "Observation",
      "id": "5e444dc33afe5d000044c832",
      "meta": {
        "profile": [ "http://hl7.org/fhir/us/qicore/StructureDefinition/qicore-observation" ]
      },
      "status": "final",
      "category": [ {
        "coding": [ {
          "system": "http://terminology.hl7.org/CodeSystem/observation-category",
          "code": "laboratory",
          "display": "Laboratory"
        } ]
      } ],
      "code": {
        "coding": [ {
          "system": "http://loinc.org",
          "code": "34714-6"
        } ]
      },
      "subject": {
        "reference": "Patient/2dc3e469-a1c6-4419-aecc-72e75dc8507b"
      },
      "effectivePeriod": {
        "start": "2025-03-11T09:00:00+00:00",
        "end": "2025-04-01T08:15:00+00:00"
      },
      "issued": "2025-03-11T09:00:00.000+00:00",
      "valueQuantity": {
        "value": 3.3
      }
    },
    "request": {
      "method": "PUT",
      "url": "Observation/5e444dc33afe5d000044c832"
    }
  }, {
    "fullUrl": "https://madie.cms.gov/Observation/5e444eb23afe5d000044c968",
    "resource": {
      "resourceType": "Observation",
      "id": "5e444eb23afe5d000044c968",
      "meta": {
        "profile": [ "http://hl7.org/fhir/us/qicore/StructureDefinition/qicore-observation" ]
      },
      "status": "final",
      "category": [ {
        "coding": [ {
          "system": "http://terminology.hl7.org/CodeSystem/observation-category",
          "code": "laboratory",
          "display": "Laboratory"
        } ]
      } ],
      "code": {
        "coding": [ {
          "system": "http://loinc.org",
          "code": "34714-6"
        } ]
      },
      "subject": {
        "reference": "Patient/2dc3e469-a1c6-4419-aecc-72e75dc8507b"
      },
      "effectivePeriod": {
        "start": "2025-04-02T08:00:00+00:00",
        "end": "2025-04-02T08:15:00+00:00"
      },
      "issued": "2025-04-02T08:00:00.000+00:00",
      "valueQuantity": {
        "value": 3.49
      }
    },
    "request": {
      "method": "PUT",
      "url": "Observation/5e444eb23afe5d000044c968"
    }
  }, {
    "fullUrl": "https://madie.cms.gov/MedicationAdministration/5e444c933afe5d000044c61a",
    "resource": {
      "resourceType": "MedicationAdministration",
      "id": "5e444c933afe5d000044c61a",
      "meta": {
        "profile": [ "http://hl7.org/fhir/us/qicore/StructureDefinition/qicore-medicationadministration" ]
      },
      "extension": [ {
        "url": "http://hl7.org/fhir/us/qicore/StructureDefinition/qicore-recorded",
        "valueDateTime": "2025-03-01T05:00:00+00:00"
      } ],
      "status": "completed",
      "medicationCodeableConcept": {
        "coding": [ {
          "system": "http://www.nlm.nih.gov/research/umls/rxnorm",
          "code": "1804799"
        } ]
      },
      "subject": {
        "reference": "Patient/2dc3e469-a1c6-4419-aecc-72e75dc8507b"
      },
      "effectivePeriod": {
        "start": "2025-03-01T05:00:00+00:00",
        "end": "2025-03-01T11:15:00+00:00"
      }
    },
    "request": {
      "method": "PUT",
      "url": "MedicationAdministration/5e444c933afe5d000044c61a"
    }
  }, {
    "fullUrl": "https://madie.cms.gov/MedicationAdministration/5e444cfe3afe5d000044c6ce",
    "resource": {
      "resourceType": "MedicationAdministration",
      "id": "5e444cfe3afe5d000044c6ce",
      "meta": {
        "profile": [ "http://hl7.org/fhir/us/qicore/StructureDefinition/qicore-medicationadministration" ]
      },
      "extension": [ {
        "url": "http://hl7.org/fhir/us/qicore/StructureDefinition/qicore-recorded",
        "valueDateTime": "2025-03-02T13:00:00+00:00"
      } ],
      "status": "completed",
      "medicationCodeableConcept": {
        "coding": [ {
          "system": "http://www.nlm.nih.gov/research/umls/rxnorm",
          "code": "1037045"
        } ]
      },
      "subject": {
        "reference": "Patient/2dc3e469-a1c6-4419-aecc-72e75dc8507b"
      },
      "effectivePeriod": {
        "start": "2025-03-02T13:00:00+00:00",
        "end": "2025-03-02T23:15:00+00:00"
      }
    },
    "request": {
      "method": "PUT",
      "url": "MedicationAdministration/5e444cfe3afe5d000044c6ce"
    }
  }, {
    "fullUrl": "https://madie.cms.gov/MedicationAdministration/5e444df03afe5d000044c886",
    "resource": {
      "resourceType": "MedicationAdministration",
      "id": "5e444df03afe5d000044c886",
      "meta": {
        "profile": [ "http://hl7.org/fhir/us/qicore/StructureDefinition/qicore-medicationadministration" ]
      },
      "extension": [ {
        "url": "http://hl7.org/fhir/us/qicore/StructureDefinition/qicore-recorded",
        "valueDateTime": "2025-03-11T09:00:00+00:00"
      } ],
      "status": "completed",
      "medicationCodeableConcept": {
        "coding": [ {
          "system": "http://www.nlm.nih.gov/research/umls/rxnorm",
          "code": "1037045"
        } ]
      },
      "subject": {
        "reference": "Patient/2dc3e469-a1c6-4419-aecc-72e75dc8507b"
      },
      "effectivePeriod": {
        "start": "2025-03-11T09:00:00+00:00",
        "end": "2025-04-01T08:15:00+00:00"
      }
    },
    "request": {
      "method": "PUT",
      "url": "MedicationAdministration/5e444df03afe5d000044c886"
    }
  }, {
    "fullUrl": "https://madie.cms.gov/MedicationAdministration/5e444ed13afe5d000044c998",
    "resource": {
      "resourceType": "MedicationAdministration",
      "id": "5e444ed13afe5d000044c998",
      "meta": {
        "profile": [ "http://hl7.org/fhir/us/qicore/StructureDefinition/qicore-medicationadministration" ]
      },
      "extension": [ {
        "url": "http://hl7.org/fhir/us/qicore/StructureDefinition/qicore-recorded",
        "valueDateTime": "2025-04-02T08:00:00+00:00"
      } ],
      "status": "not-done",
      "statusReason": [ {
        "coding": [ {
          "system": "http://snomed.info/sct",
          "code": "105480006",
          "display": "Refusal of treatment by patient (situation)"
        } ]
      } ],
      "medicationCodeableConcept": {
        "coding": [ {
          "system": "http://www.nlm.nih.gov/research/umls/rxnorm",
          "code": "1116635"
        } ]
      },
      "subject": {
        "reference": "Patient/2dc3e469-a1c6-4419-aecc-72e75dc8507b"
      },
      "effectivePeriod": {
        "start": "2025-04-02T08:00:00+00:00",
        "end": "2025-04-02T08:15:00+00:00"
      }
    },
    "request": {
      "method": "PUT",
      "url": "MedicationAdministration/5e444ed13afe5d000044c998"
    }
  }, {
    "fullUrl": "https://madie.cms.gov/MedicationAdministration/5e444eff3afe5d000044ca5e",
    "resource": {
      "resourceType": "MedicationAdministration",
      "id": "5e444eff3afe5d000044ca5e",
      "meta": {
        "profile": [ "http://hl7.org/fhir/us/qicore/StructureDefinition/qicore-medicationadministration" ]
      },
      "extension": [ {
        "url": "http://hl7.org/fhir/us/qicore/StructureDefinition/qicore-recorded",
        "valueDateTime": "2025-04-02T08:00:00+00:00"
      } ],
      "status": "completed",
      "medicationCodeableConcept": {
        "coding": [ {
          "system": "http://www.nlm.nih.gov/research/umls/rxnorm",
          "code": "1037045"
        } ]
      },
      "subject": {
        "reference": "Patient/2dc3e469-a1c6-4419-aecc-72e75dc8507b"
      },
      "effectivePeriod": {
        "start": "2025-04-02T08:00:00+00:00",
        "end": "2025-04-02T08:15:00+00:00"
      }
    },
    "request": {
      "method": "PUT",
      "url": "MedicationAdministration/5e444eff3afe5d000044ca5e"
    }
  }, {
    "fullUrl": "https://madie.cms.gov/MedicationRequest/5e444cfb3afe5d000044c6be",
    "resource": {
      "resourceType": "MedicationRequest",
      "id": "5e444cfb3afe5d000044c6be",
      "meta": {
        "profile": [ "http://hl7.org/fhir/us/qicore/StructureDefinition/qicore-medicationrequest" ]
      },
      "status": "completed",
      "intent": "order",
      "medicationCodeableConcept": {
        "coding": [ {
          "system": "http://www.nlm.nih.gov/research/umls/rxnorm",
          "code": "1037045"
        } ]
      },
      "subject": {
        "reference": "Patient/2dc3e469-a1c6-4419-aecc-72e75dc8507b"
      },
      "authoredOn": "2025-03-02T08:00:00+00:00",
      "requester": {
        "reference": "Practitioner/practitioner-123456"
      },
      "dosageInstruction": [ {
        "timing": {
          "repeat": {
            "boundsPeriod": {
              "start": "2025-03-02T13:00:00+00:00",
              "end": "2025-03-02T23:15:00+00:00"
            }
          }
        }
      } ]
    },
    "request": {
      "method": "PUT",
      "url": "MedicationRequest/5e444cfb3afe5d000044c6be"
    }
  }, {
    "fullUrl": "https://madie.cms.gov/MedicationRequest/5e444ded3afe5d000044c870",
    "resource": {
      "resourceType": "MedicationRequest",
      "id": "5e444ded3afe5d000044c870",
      "meta": {
        "profile": [ "http://hl7.org/fhir/us/qicore/StructureDefinition/qicore-medicationrequest" ]
      },
      "status": "completed",
      "intent": "order",
      "medicationCodeableConcept": {
        "coding": [ {
          "system": "http://www.nlm.nih.gov/research/umls/rxnorm",
          "code": "1037045"
        } ]
      },
      "subject": {
        "reference": "Patient/2dc3e469-a1c6-4419-aecc-72e75dc8507b"
      },
      "authoredOn": "2025-03-11T09:00:00+00:00",
      "requester": {
        "reference": "Practitioner/practitioner-123456"
      },
      "dosageInstruction": [ {
        "timing": {
          "repeat": {
            "boundsPeriod": {
              "start": "2025-03-11T09:00:00+00:00",
              "end": "2025-04-01T08:15:00+00:00"
            }
          }
        }
      } ]
    },
    "request": {
      "method": "PUT",
      "url": "MedicationRequest/5e444ded3afe5d000044c870"
    }
  }, {
    "fullUrl": "https://madie.cms.gov/MedicationRequest/5e444eed3afe5d000044c9fa",
    "resource": {
      "resourceType": "MedicationRequest",
      "id": "5e444eed3afe5d000044c9fa",
      "meta": {
        "profile": [ "http://hl7.org/fhir/us/qicore/StructureDefinition/qicore-medicationrequest" ]
      },
      "status": "active",
      "intent": "order",
      "medicationCodeableConcept": {
        "coding": [ {
          "system": "http://www.nlm.nih.gov/research/umls/rxnorm",
          "code": "1037045"
        } ]
      },
      "subject": {
        "reference": "Patient/2dc3e469-a1c6-4419-aecc-72e75dc8507b"
      },
      "authoredOn": "2025-04-02T08:00:00+00:00",
      "requester": {
        "reference": "Practitioner/practitioner-123456"
      },
      "dosageInstruction": [ {
        "timing": {
          "repeat": {
            "boundsPeriod": {
              "start": "2025-04-02T08:00:00+00:00",
              "end": "2025-04-02T08:15:00+00:00"
            }
          }
        }
      } ]
    },
    "request": {
      "method": "PUT",
      "url": "MedicationRequest/5e444eed3afe5d000044c9fa"
    }
  }, {
    "fullUrl": "https://madie.cms.gov/Condition/ischemic-stroke-7d3a",
    "resource": {
      "resourceType": "Condition",
      "id": "ischemic-stroke-7d3a",
      "meta": {
        "profile": [ "http://hl7.org/fhir/us/qicore/StructureDefinition/qicore-condition" ]
      },
      "clinicalStatus": {
        "coding": [ {
          "system": "http://terminology.hl7.org/CodeSystem/condition-clinical",
          "code": "active"
        } ]
      },
      "verificationStatus": {
        "coding": [ {
          "system": "http://terminology.hl7.org/CodeSystem/condition-ver-status",
          "code": "confirmed"
        } ]
      },
      "category": [ {
        "coding": [ {
          "system": "http://terminology.hl7.org/CodeSystem/condition-category",
          "code": "encounter-diagnosis",
          "display": "Encounter Diagnosis"
        } ]
      } ],
      "code": {
        "coding": [ {
          "system": "http://snomed.info/sct",
          "version": "2020-09",
          "code": "111297002",
          "display": "Nonparalytic stroke (disorder)",
          "userSelected": true
        } ]
      },
      "subject": {
        "reference": "Patient/2dc3e469-a1c6-4419-aecc-72e75dc8507b"
      },
      "recordedDate": "2025-08-16T08:00:00.000+00:00"
    },
    "request": {
      "method": "PUT",
      "url": "Condition/ischemic-stroke-7d3a"
    }
  }, {
    "fullUrl": "https://madie.cms.gov/Condition/ischemic-stroke-7d3b",
    "resource": {
      "resourceType": "Condition",
      "id": "ischemic-stroke-7d3b",
      "meta": {
        "profile": [ "http://hl7.org/fhir/us/qicore/StructureDefinition/qicore-condition" ]
      },
      "clinicalStatus": {
        "coding": [ {
          "system": "http://terminology.hl7.org/CodeSystem/condition-clinical",
          "code": "active"
        } ]
      },
      "verificationStatus": {
        "coding": [ {
          "system": "http://terminology.hl7.org/CodeSystem/condition-ver-status",
          "code": "confirmed"
        } ]
      },
      "category": [ {
        "coding": [ {
          "system": "http://terminology.hl7.org/CodeSystem/condition-category",
          "code": "encounter-diagnosis",
          "display": "Encounter Diagnosis"
        } ]
      } ],
      "code": {
        "coding": [ {
          "system": "http://snomed.info/sct",
          "version": "2020-09",
          "code": "111297002",
          "display": "Nonparalytic stroke (disorder)",
          "userSelected": true
        } ]
      },
      "subject": {
        "reference": "Patient/2dc3e469-a1c6-4419-aecc-72e75dc8507b"
      },
      "recordedDate": "2025-08-16T08:00:00.000+00:00"
    },
    "request": {
      "method": "PUT",
      "url": "Condition/ischemic-stroke-7d3b"
    }
  }, {
    "fullUrl": "https://madie.cms.gov/Condition/ischemic-stroke-7d3c",
    "resource": {
      "resourceType": "Condition",
      "id": "ischemic-stroke-7d3c",
      "meta": {
        "profile": [ "http://hl7.org/fhir/us/qicore/StructureDefinition/qicore-condition" ]
      },
      "clinicalStatus": {
        "coding": [ {
          "system": "http://terminology.hl7.org/CodeSystem/condition-clinical",
          "code": "active"
        } ]
      },
      "verificationStatus": {
        "coding": [ {
          "system": "http://terminology.hl7.org/CodeSystem/condition-ver-status",
          "code": "confirmed"
        } ]
      },
      "category": [ {
        "coding": [ {
          "system": "http://terminology.hl7.org/CodeSystem/condition-category",
          "code": "encounter-diagnosis",
          "display": "Encounter Diagnosis"
        } ]
      } ],
      "code": {
        "coding": [ {
          "system": "http://snomed.info/sct",
          "version": "2020-09",
          "code": "111297002",
          "display": "Nonparalytic stroke (disorder)",
          "userSelected": true
        } ]
      },
      "subject": {
        "reference": "Patient/2dc3e469-a1c6-4419-aecc-72e75dc8507b"
      },
      "recordedDate": "2025-08-16T08:00:00.000+00:00"
    },
    "request": {
      "method": "PUT",
      "url": "Condition/ischemic-stroke-7d3c"
    }
  }, {
    "fullUrl": "https://madie.cms.gov/Condition/ischemic-stroke-7d3d",
    "resource": {
      "resourceType": "Condition",
      "id": "ischemic-stroke-7d3d",
      "meta": {
        "profile": [ "http://hl7.org/fhir/us/qicore/StructureDefinition/qicore-condition" ]
      },
      "clinicalStatus": {
        "coding": [ {
          "system": "http://terminology.hl7.org/CodeSystem/condition-clinical",
          "code": "active"
        } ]
      },
      "verificationStatus": {
        "coding": [ {
          "system": "http://terminology.hl7.org/CodeSystem/condition-ver-status",
          "code": "confirmed"
        } ]
      },
      "category": [ {
        "coding": [ {
          "system": "http://terminology.hl7.org/CodeSystem/condition-category",
          "code": "encounter-diagnosis",
          "display": "Encounter Diagnosis"
        } ]
      } ],
      "code": {
        "coding": [ {
          "system": "http://snomed.info/sct",
          "version": "2020-09",
          "code": "111297002",
          "display": "Nonparalytic stroke (disorder)",
          "userSelected": true
        } ]
      },
      "subject": {
        "reference": "Patient/2dc3e469-a1c6-4419-aecc-72e75dc8507b"
      },
      "recordedDate": "2025-08-16T08:00:00.000+00:00"
    },
    "request": {
      "method": "PUT",
      "url": "Condition/ischemic-stroke-7d3d"
    }
  }, {
    "fullUrl": "https://madie.cms.gov/Coverage/1",
    "resource": {
      "resourceType": "Coverage",
      "id": "Coverage-1",
      "meta": {
        "profile": [ "http://hl7.org/fhir/us/qicore/StructureDefinition/qicore-coverage" ]
      },
      "status": "active",
      "beneficiary": {
        "reference": "Patient/2dc3e469-a1c6-4419-aecc-72e75dc8507b"
      },
      "payor": [ {
        "reference": "Organization/Org-123456"
      } ]
    },
    "request": {
      "method": "PUT",
      "url": "Coverage/Coverage-1"
    }
  }, {
    "fullUrl": "https://madie.cms.gov/Organization/123456",
    "resource": {
      "resourceType": "Organization",
      "id": "Org-123456",
      "meta": {
        "profile": [ "http://hl7.org/fhir/us/qicore/StructureDefinition/qicore-organization" ]
      },
      "identifier": [ {
        "use": "temp",
        "system": "urn:oid:2.16.840.1.113883.4.4",
        "value": "21-3259825"
      } ],
      "active": true,
      "type": [ {
        "coding": [ {
          "system": "http://terminology.hl7.org/CodeSystem/organization-type",
          "code": "pay",
          "display": "Payer"
        } ]
      } ],
      "name": "Blue Cross Blue Shield of Texas",
      "telecom": [ {
        "system": "phone",
        "value": "(+1) 972-766-6900"
      } ],
      "address": [ {
        "use": "billing",
        "type": "postal",
        "line": [ "P.O. Box 660044" ],
        "city": "Dallas",
        "state": "TX",
        "postalCode": "75266-0044",
        "country": "USA"
      } ]
    },
    "request": {
      "method": "PUT",
      "url": "Organization/Org-123456"
    }
  }, {
    "fullUrl": "https://madie.cms.gov/Practitioner/practitioner-123456",
    "resource": {
      "resourceType": "Practitioner",
      "id": "practitioner-123456",
      "identifier": [ {
        "system": "http://hl7.org/fhir/sid/us-npi",
        "value": "123456"
      } ],
      "name": [ {
        "family": "Evil",
        "prefix": [ "Dr" ]
      } ]
    },
    "request": {
      "method": "PUT",
      "url": "Practitioner/practitioner-123456"
    }
  }, {
    "fullUrl": "https://madie.cms.gov/MeasureReport/228acd33-6d85-46fa-a661-2a7a0fb28d68",
    "resource": {
      "resourceType": "MeasureReport",
      "id": "228acd33-6d85-46fa-a661-2a7a0fb28d68",
      "meta": {
        "profile": [ "http://hl7.org/fhir/us/cqfmeasures/StructureDefinition/test-case-cqfm" ]
      },
      "contained": [ {
        "resourceType": "Parameters",
        "id": "4f319619-72ff-4b34-ba27-a49ee5dc2cc9-parameters",
        "parameter": [ {
          "name": "subject",
          "valueString": "2dc3e469-a1c6-4419-aecc-72e75dc8507b"
        } ]
      } ],
      "extension": [ {
        "url": "http://hl7.org/fhir/us/cqfmeasures/StructureDefinition/cqfm-inputParameters",
        "valueReference": {
          "reference": "#4f319619-72ff-4b34-ba27-a49ee5dc2cc9-parameters"
        }
      }, {
        "url": "http://hl7.org/fhir/us/cqfmeasures/StructureDefinition/cqfm-testCaseDescription",
        "valueMarkdown": "Multiple encounter testing\n"
      } ],
      "modifierExtension": [ {
        "url": "http://hl7.org/fhir/us/cqfmeasures/StructureDefinition/cqfm-isTestCase",
        "valueBoolean": true
      } ],
      "status": "complete",
      "type": "individual",
      "measure": "https://madie.cms.gov/Measure/AntithromboticTherapyByEndofHospitalDay2FHIR",
      "period": {
        "start": "2025-01-01",
        "end": "2025-12-31"
      },
      "group": [ {
        "population": [ {
          "code": {
            "coding": [ {
              "system": "http://terminology.hl7.org/CodeSystem/measure-population",
              "code": "initial-population",
              "display": "Initial Population"
            } ]
          },
          "count": 3
        }, {
          "code": {
            "coding": [ {
              "system": "http://terminology.hl7.org/CodeSystem/measure-population",
              "code": "denominator",
              "display": "Denominator"
            } ]
          },
          "count": 3
        }, {
          "code": {
            "coding": [ {
              "system": "http://terminology.hl7.org/CodeSystem/measure-population",
              "code": "denominator-exclusion",
              "display": "Denominator Exclusion"
            } ]
          },
          "count": 2
        }, {
          "code": {
            "coding": [ {
              "system": "http://terminology.hl7.org/CodeSystem/measure-population",
              "code": "numerator",
              "display": "Numerator"
            } ]
          },
          "count": 1
        }, {
          "code": {
            "coding": [ {
              "system": "http://terminology.hl7.org/CodeSystem/measure-population",
              "code": "denominator-exception",
              "display": "Denominator Exception"
            } ]
          },
          "count": 0
        } ]
      } ],
      "evaluatedResource": [ {
        "reference": "Patient/2dc3e469-a1c6-4419-aecc-72e75dc8507b"
      }, {
        "reference": "Condition/5e444de83afe5d000044c85a"
      }, {
        "reference": "Encounter/5e444b753afe5d000044c598"
      }, {
        "reference": "Encounter/5e444bb53afe5d000044c5b7"
      }, {
        "reference": "Encounter/5e444ccb3afe5d000044c65b"
      }, {
        "reference": "Encounter/5e444ce03afe5d000044c684"
      }, {
        "reference": "Encounter/5e444d2a3afe5d000044c6f1"
      }, {
        "reference": "Encounter/5e444d703afe5d000044c78c"
      }, {
        "reference": "Encounter/5e444e8c3afe5d000044c8f1"
      }, {
        "reference": "ServiceRequest/5e444d1f3afe5d000044c6df"
      }, {
        "reference": "Observation/5e444bf63afe5d000044c5f7"
      }, {
        "reference": "Observation/5e444dc33afe5d000044c832"
      }, {
        "reference": "Observation/5e444eb23afe5d000044c968"
      }, {
        "reference": "MedicationAdministration/5e444c933afe5d000044c61a"
      }, {
        "reference": "MedicationAdministration/5e444cfe3afe5d000044c6ce"
      }, {
        "reference": "MedicationAdministration/5e444df03afe5d000044c886"
      }, {
        "reference": "MedicationAdministration/5e444ed13afe5d000044c998"
      }, {
        "reference": "MedicationAdministration/5e444eff3afe5d000044ca5e"
      }, {
        "reference": "MedicationRequest/5e444cfb3afe5d000044c6be"
      }, {
        "reference": "MedicationRequest/5e444ded3afe5d000044c870"
      }, {
        "reference": "MedicationRequest/5e444eed3afe5d000044c9fa"
      }, {
        "reference": "Condition/ischemic-stroke-7d3a"
      }, {
        "reference": "Condition/ischemic-stroke-7d3b"
      }, {
        "reference": "Condition/ischemic-stroke-7d3c"
      }, {
        "reference": "Condition/ischemic-stroke-7d3d"
      }, {
        "reference": "Coverage/Coverage-1"
      }, {
        "reference": "Organization/Org-123456"
      }, {
        "reference": "Practitioner/practitioner-123456"
      } ]
    },
    "request": {
      "method": "PUT",
      "url": "MeasureReport/228acd33-6d85-46fa-a661-2a7a0fb28d68"
    }
  } ]
}