{
  "resourceType": "Bundle",
  "id": "68468414568746513",
  "type": "transaction",
  "entry": [ {
    "fullUrl": "https://madie.cms.gov/Patient/d7067d60-b722-4bba-b78e-682d86c0b48e",
    "resource": {
      "resourceType": "Patient",
      "id": "d7067d60-b722-4bba-b78e-682d86c0b48e",
      "meta": {
        "profile": [ "http://hl7.org/fhir/us/qicore/StructureDefinition/qicore-patient" ]
      },
      "extension": [ {
        "url": "http://hl7.org/fhir/us/core/StructureDefinition/us-core-race",
        "extension": [ {
          "url": "ombCategory",
          "valueCoding": {
            "system": "urn:oid:2.16.840.1.113883.6.238",
            "code": "1002-5",
            "display": "American Indian or Alaska Native"
          }
        }, {
          "url": "text",
          "valueString": "American Indian or Alaska Native"
        } ]
      }, {
        "url": "http://hl7.org/fhir/us/core/StructureDefinition/us-core-ethnicity",
        "extension": [ {
          "url": "ombCategory",
          "valueCoding": {
            "system": "urn:oid:2.16.840.1.113883.6.238",
            "code": "2135-2",
            "display": "Hispanic or Latino"
          }
        }, {
          "url": "text",
          "valueString": "Hispanic or Latino"
        } ]
      } ],
      "identifier": [ {
        "type": {
          "coding": [ {
            "system": "http://terminology.hl7.org/CodeSystem/v2-0203",
            "code": "MR"
          } ]
        },
        "system": "https://bonnie-fhir.healthit.gov/",
        "value": "643510313413131"
      } ],
      "name": [ {
        "family": "DENEXCEPPass",
        "given": [ "PregnancyDx" ]
      } ],
      "gender": "female",
      "birthDate": "1994-01-02"
    },
    "request": {
      "method": "POST",
      "url": "Patient/d7067d60-b722-4bba-b78e-682d86c0b48e"
    }
  }, {
    "fullUrl": "https://madie.cms.gov/Encounter/541351354513",
    "resource": {
      "resourceType": "Encounter",
      "id": "541351354513",
      "meta": {
        "profile": [ "http://hl7.org/fhir/us/qicore/StructureDefinition/qicore-encounter" ]
      },
      "status": "finished",
      "class": {
        "system": "http://terminology.hl7.org/CodeSystem/v3-ActCode",
        "code": "AMB",
        "display": "ambulatory"
      },
      "type": [ {
        "coding": [ {
          "system": "http://snomed.info/sct",
          "version": "http://snomed.info/sct/731000124108/version/20240301",
          "code": "185463005",
          "display": "Visit out of hours (procedure)"
        } ]
      } ],
      "subject": {
        "reference": "Patient/d7067d60-b722-4bba-b78e-682d86c0b48e"
      },
      "period": {
        "start": "2025-02-17T08:00:00.000+00:00",
        "end": "2025-02-17T08:15:00.000+00:00"
      }
    },
    "request": {
      "method": "POST",
      "url": "Encounter/541351354513"
    }
  }, {
    "fullUrl": "https://madie.cms.gov/Encounter/98461535461312",
    "resource": {
      "resourceType": "Encounter",
      "id": "98461535461312",
      "meta": {
        "profile": [ "http://hl7.org/fhir/us/qicore/StructureDefinition/qicore-encounter" ]
      },
      "status": "finished",
      "class": {
        "system": "http://terminology.hl7.org/CodeSystem/v3-ActCode",
        "code": "AMB",
        "display": "ambulatory"
      },
      "type": [ {
        "coding": [ {
          "system": "http://snomed.info/sct",
          "version": "http://snomed.info/sct/731000124108/version/20240301",
          "code": "185316007",
          "display": "Indirect encounter (procedure)"
        } ]
      } ],
      "subject": {
        "reference": "Patient/d7067d60-b722-4bba-b78e-682d86c0b48e"
      },
      "period": {
        "start": "2025-12-30T08:00:00.000+00:00",
        "end": "2025-12-30T08:15:00.000+00:00"
      }
    },
    "request": {
      "method": "POST",
      "url": "Encounter/98461535461312"
    }
  }, {
    "fullUrl": "https://madie.cms.gov/Condition/8741654646353",
    "resource": {
      "resourceType": "Condition",
      "id": "8741654646353",
      "meta": {
        "profile": [ "http://hl7.org/fhir/us/qicore/StructureDefinition/qicore-condition" ]
      },
      "clinicalStatus": {
        "coding": [ {
          "system": "http://terminology.hl7.org/CodeSystem/condition-clinical",
          "code": "active",
          "display": "Active"
        } ]
      },
      "verificationStatus": {
        "coding": [ {
          "system": "http://terminology.hl7.org/CodeSystem/condition-ver-status",
          "code": "confirmed",
          "display": "Confirmed"
        } ]
      },
      "category": [ {
        "coding": [ {
          "system": "http://terminology.hl7.org/CodeSystem/condition-category",
          "code": "problem-list-item",
          "display": "Problem List Item"
        } ]
      } ],
      "code": {
        "coding": [ {
          "system": "http://snomed.info/sct",
          "version": "http://snomed.info/sct/731000124108/version/20240301",
          "code": "10091002",
          "display": "High output heart failure (disorder)"
        } ]
      },
      "subject": {
        "reference": "Patient/d7067d60-b722-4bba-b78e-682d86c0b48e"
      },
      "onsetPeriod": {
        "start": "2025-02-17T08:00:00.000+00:00"
      }
    },
    "request": {
      "method": "POST",
      "url": "Condition/8741654646353"
    }
  }, {
    "fullUrl": "https://madie.cms.gov/Observation/351684613135",
    "resource": {
      "resourceType": "Observation",
      "id": "351684613135",
      "meta": {
        "profile": [ "http://hl7.org/fhir/us/qicore/StructureDefinition/qicore-observation" ]
      },
      "status": "final",
      "category": [ {
        "coding": [ {
          "system": "http://terminology.hl7.org/CodeSystem/observation-category",
          "code": "imaging",
          "display": "Imaging"
        } ],
        "text": "Imaging"
      } ],
      "code": {
        "coding": [ {
          "system": "http://loinc.org",
          "version": "2.76",
          "code": "10230-1",
          "display": "Left ventricular Ejection fraction"
        } ]
      },
      "subject": {
        "reference": "Patient/d7067d60-b722-4bba-b78e-682d86c0b48e"
      },
      "effectiveDateTime": "2025-02-17T08:00:00.000+00:00",
      "valueQuantity": {
        "value": 35,
        "unit": "%",
        "system": "http://unitsofmeasure.org",
        "code": "%"
      }
    },
    "request": {
      "method": "POST",
      "url": "Observation/351684613135"
    }
  }, {
    "fullUrl": "https://madie.cms.gov/Condition/571521321551548",
    "resource": {
      "resourceType": "Condition",
      "id": "571521321551548",
      "meta": {
        "profile": [ "http://hl7.org/fhir/us/qicore/StructureDefinition/qicore-condition" ]
      },
      "clinicalStatus": {
        "coding": [ {
          "system": "http://terminology.hl7.org/CodeSystem/condition-clinical",
          "code": "active",
          "display": "Active"
        } ]
      },
      "verificationStatus": {
        "coding": [ {
          "system": "http://terminology.hl7.org/CodeSystem/condition-ver-status",
          "code": "confirmed",
          "display": "confirmed"
        } ]
      },
      "category": [ {
        "coding": [ {
          "system": "http://terminology.hl7.org/CodeSystem/condition-category",
          "code": "problem-list-item",
          "display": "Problem List Item"
        } ]
      } ],
      "code": {
        "coding": [ {
          "system": "http://snomed.info/sct",
          "version": "http://snomed.info/sct/731000124108/version/20240301",
          "code": "11082009",
          "display": "Abnormal pregnancy (finding)"
        } ]
      },
      "subject": {
        "reference": "Patient/d7067d60-b722-4bba-b78e-682d86c0b48e"
      },
      "onsetPeriod": {
        "start": "2025-01-02T08:00:00.000+00:00"
      }
    },
    "request": {
      "method": "POST",
      "url": "Condition/571521321551548"
    }
  }, {
    "fullUrl": "https://madie.cms.gov/MeasureReport/d214c4c6-1324-4487-bc90-7c5373efc946",
    "resource": {
      "resourceType": "MeasureReport",
      "id": "d214c4c6-1324-4487-bc90-7c5373efc946",
      "meta": {
        "profile": [ "http://hl7.org/fhir/us/cqfmeasures/StructureDefinition/test-case-cqfm" ]
      },
      "contained": [ {
        "resourceType": "Parameters",
        "id": "7e599c30-d020-48f6-9d0d-ce2110504ebe-parameters",
        "parameter": [ {
          "name": "subject",
          "valueString": "d7067d60-b722-4bba-b78e-682d86c0b48e"
        } ]
      } ],
      "extension": [ {
        "url": "http://hl7.org/fhir/us/cqfmeasures/StructureDefinition/cqfm-inputParameters",
        "valueReference": {
          "reference": "#7e599c30-d020-48f6-9d0d-ce2110504ebe-parameters"
        }
      }, {
        "url": "http://hl7.org/fhir/us/cqfmeasures/StructureDefinition/cqfm-testCaseDescription",
        "valueMarkdown": "Patient with HF diagnosis, 2 encounters and LVSD observation < 40% not prescribed ACE/ARB but meets denominator exception criteria with pregnancy diagnosis"
      } ],
      "modifierExtension": [ {
        "url": "http://hl7.org/fhir/us/cqfmeasures/StructureDefinition/cqfm-isTestCase",
        "valueBoolean": true
      } ],
      "status": "complete",
      "type": "individual",
      "measure": "https://madie.cms.gov/Measure/HFACEIorARBorARNIforLVSDFHIR",
      "period": {
        "start": "2025-01-01",
        "end": "2025-12-31"
      },
      "group": [ {
        "population": [ {
          "code": {
            "coding": [ {
              "system": "http://terminology.hl7.org/CodeSystem/measure-population",
              "code": "initial-population",
              "display": "Initial Population"
            } ]
          },
          "count": 1
        }, {
          "code": {
            "coding": [ {
              "system": "http://terminology.hl7.org/CodeSystem/measure-population",
              "code": "denominator",
              "display": "Denominator"
            } ]
          },
          "count": 1
        }, {
          "code": {
            "coding": [ {
              "system": "http://terminology.hl7.org/CodeSystem/measure-population",
              "code": "denominator-exclusion",
              "display": "Denominator Exclusion"
            } ]
          },
          "count": 0
        }, {
          "code": {
            "coding": [ {
              "system": "http://terminology.hl7.org/CodeSystem/measure-population",
              "code": "numerator",
              "display": "Numerator"
            } ]
          },
          "count": 0
        }, {
          "code": {
            "coding": [ {
              "system": "http://terminology.hl7.org/CodeSystem/measure-population",
              "code": "denominator-exception",
              "display": "Denominator Exception"
            } ]
          },
          "count": 1
        } ]
      } ],
      "evaluatedResource": [ {
        "reference": "https://madie.cms.gov/Patient/d7067d60-b722-4bba-b78e-682d86c0b48e"
      }, {
        "reference": "https://madie.cms.gov/Encounter/541351354513"
      }, {
        "reference": "https://madie.cms.gov/Encounter/98461535461312"
      }, {
        "reference": "https://madie.cms.gov/Condition/8741654646353"
      }, {
        "reference": "https://madie.cms.gov/Observation/351684613135"
      }, {
        "reference": "https://madie.cms.gov/Condition/571521321551548"
      } ]
    },
    "request": {
      "method": "POST",
      "url": "MeasureReport/d214c4c6-1324-4487-bc90-7c5373efc946"
    }
  } ]
}