{
  "resourceType": "Bundle",
  "id": "60f82c2e98086b570510e28d",
  "type": "transaction",
  "entry": [ {
    "fullUrl": "https://madie.cms.gov/Patient/7e3bf20a-7a5b-4d50-aa34-267ab19da7b2",
    "resource": {
      "resourceType": "Patient",
      "id": "7e3bf20a-7a5b-4d50-aa34-267ab19da7b2",
      "meta": {
        "profile": [ "http://hl7.org/fhir/us/qicore/StructureDefinition/qicore-patient" ]
      },
      "text": {
        "status": "generated",
        "div": "<div xmlns=\"http://www.w3.org/1999/xhtml\"><div class=\"hapiHeaderText\">MedAntithromboticStart_eq1dayDuringEncIPwEd <b>NUMERPASS </b></div><table class=\"hapiPropertyTable\"><tbody><tr><td>Identifier</td><td>31f584b75330393256fa59b34c307941</td></tr><tr><td>Date of birth</td><td><span>26 September 1975</span></td></tr></tbody></table></div>"
      },
      "extension": [ {
        "url": "http://hl7.org/fhir/us/core/StructureDefinition/us-core-race",
        "extension": [ {
          "url": "ombCategory",
          "valueCoding": {
            "system": "urn:oid:2.16.840.1.113883.6.238",
            "code": "2054-5",
            "display": "Black or African American",
            "userSelected": true
          }
        }, {
          "url": "text",
          "valueString": "Black or African American"
        } ]
      }, {
        "url": "http://hl7.org/fhir/us/core/StructureDefinition/us-core-ethnicity",
        "extension": [ {
          "url": "ombCategory",
          "valueCoding": {
            "system": "urn:oid:2.16.840.1.113883.6.238",
            "code": "2186-5",
            "display": "Not Hispanic or Latino",
            "userSelected": true
          }
        }, {
          "url": "text",
          "valueString": "Not Hispanic or Latino"
        } ]
      } ],
      "identifier": [ {
        "type": {
          "coding": [ {
            "system": "http://terminology.hl7.org/CodeSystem/v2-0203",
            "code": "MR"
          } ]
        },
        "system": "https://bonnie-fhir.healthit.gov/",
        "value": "60f82c2e98086b570510e28d"
      } ],
      "active": true,
      "name": [ {
        "use": "usual",
        "family": "NUMERPass",
        "given": [ "MedAntithromboticStart_eq1dayDuringEncIPwEd" ]
      } ],
      "gender": "female",
      "birthDate": "1975-09-26"
    },
    "request": {
      "method": "POST",
      "url": "Patient/7e3bf20a-7a5b-4d50-aa34-267ab19da7b2"
    }
  }, {
    "fullUrl": "https://madie.cms.gov/Encounter/5c954893b848462de0ae626b",
    "resource": {
      "resourceType": "Encounter",
      "id": "5c954893b848462de0ae626b",
      "meta": {
        "profile": [ "http://hl7.org/fhir/us/qicore/StructureDefinition/qicore-encounter" ]
      },
      "status": "finished",
      "class": {
        "system": "http://terminology.hl7.org/CodeSystem/v3-ActCode",
        "code": "EMER",
        "display": "emergency"
      },
      "type": [ {
        "coding": [ {
          "system": "http://snomed.info/sct",
          "code": "4525004"
        } ]
      } ],
      "subject": {
        "reference": "Patient/7e3bf20a-7a5b-4d50-aa34-267ab19da7b2"
      },
      "period": {
        "start": "2025-10-10T06:00:00+00:00",
        "end": "2025-10-10T08:30:00+00:00"
      },
      "length": {
        "value": 0,
        "unit": "days"
      }
    },
    "request": {
      "method": "POST",
      "url": "Encounter/5c954893b848462de0ae626b"
    }
  }, {
    "fullUrl": "https://madie.cms.gov/Encounter/5c954893b848462de0ae626c",
    "resource": {
      "resourceType": "Encounter",
      "id": "5c954893b848462de0ae626c",
      "meta": {
        "profile": [ "http://hl7.org/fhir/us/qicore/StructureDefinition/qicore-encounter" ]
      },
      "status": "finished",
      "class": {
        "system": "http://terminology.hl7.org/CodeSystem/v3-ActCode",
        "code": "IMP",
        "display": "inpatient encounter"
      },
      "type": [ {
        "coding": [ {
          "system": "http://snomed.info/sct",
          "code": "32485007"
        } ]
      } ],
      "subject": {
        "reference": "Patient/7e3bf20a-7a5b-4d50-aa34-267ab19da7b2"
      },
      "period": {
        "start": "2025-10-10T09:00:00+00:00",
        "end": "2025-10-12T11:30:00+00:00"
      },
      "length": {
        "value": 2,
        "unit": "days"
      },
      "diagnosis": [ {
        "condition": {
          "reference": "Condition/ischemic-stroke-7d65"
        },
        "use": {
          "coding": [ {
            "system": "http://terminology.hl7.org/CodeSystem/diagnosis-role",
            "code": "billing",
            "display": "Billing"
          } ]
        },
        "rank": 1
      } ]
    },
    "request": {
      "method": "POST",
      "url": "Encounter/5c954893b848462de0ae626c"
    }
  }, {
    "fullUrl": "https://madie.cms.gov/MedicationAdministration/5c954893b848462de0ae626e",
    "resource": {
      "resourceType": "MedicationAdministration",
      "id": "5c954893b848462de0ae626e",
      "meta": {
        "profile": [ "http://hl7.org/fhir/us/qicore/StructureDefinition/qicore-medicationadministration" ]
      },
      "status": "completed",
      "medicationCodeableConcept": {
        "coding": [ {
          "system": "http://www.nlm.nih.gov/research/umls/rxnorm",
          "code": "1037045"
        } ]
      },
      "subject": {
        "reference": "Patient/7e3bf20a-7a5b-4d50-aa34-267ab19da7b2"
      },
      "effectivePeriod": {
        "start": "2025-10-11T07:00:00+00:00",
        "end": "2025-10-11T08:20:00+00:00"
      }
    },
    "request": {
      "method": "POST",
      "url": "MedicationAdministration/5c954893b848462de0ae626e"
    }
  }, {
    "fullUrl": "https://madie.cms.gov/Coverage/5e20a36d1c76ba6c5896ebf0",
    "resource": {
      "resourceType": "Coverage",
      "id": "5e20a36d1c76ba6c5896ebf0",
      "status": "active",
      "beneficiary": {
        "reference": "Patient/7e3bf20a-7a5b-4d50-aa34-267ab19da7b2"
      },
      "period": {
        "start": "1975-09-26T08:00:00+00:00"
      },
      "payor": [ {
        "reference": "Organization/123456"
      } ]
    },
    "request": {
      "method": "POST",
      "url": "Coverage/5e20a36d1c76ba6c5896ebf0"
    }
  }, {
    "fullUrl": "https://madie.cms.gov/Condition/ischemic-stroke-7d65",
    "resource": {
      "resourceType": "Condition",
      "id": "ischemic-stroke-7d65",
      "meta": {
        "profile": [ "http://hl7.org/fhir/us/qicore/StructureDefinition/qicore-condition" ]
      },
      "clinicalStatus": {
        "coding": [ {
          "system": "http://terminology.hl7.org/CodeSystem/condition-clinical",
          "code": "active"
        } ]
      },
      "verificationStatus": {
        "coding": [ {
          "system": "http://terminology.hl7.org/CodeSystem/condition-ver-status",
          "code": "confirmed"
        } ]
      },
      "category": [ {
        "coding": [ {
          "system": "http://terminology.hl7.org/CodeSystem/condition-category",
          "code": "encounter-diagnosis",
          "display": "Encounter Diagnosis"
        } ]
      } ],
      "code": {
        "coding": [ {
          "system": "http://snomed.info/sct",
          "version": "2020-09",
          "code": "111297002",
          "display": "Nonparalytic stroke (disorder)",
          "userSelected": true
        } ]
      },
      "subject": {
        "reference": "Patient/7e3bf20a-7a5b-4d50-aa34-267ab19da7b2"
      },
      "recordedDate": "2025-08-16T08:00:00.000+00:00"
    },
    "request": {
      "method": "POST",
      "url": "Condition/ischemic-stroke-7d65"
    }
  }, {
    "fullUrl": "https://madie.cms.gov/Organization/123456",
    "resource": {
      "resourceType": "Organization",
      "id": "123456",
      "meta": {
        "profile": [ "http://hl7.org/fhir/us/qicore/StructureDefinition/qicore-organization" ]
      },
      "identifier": [ {
        "use": "temp",
        "system": "urn:oid:2.16.840.1.113883.4.4",
        "value": "21-3259825"
      } ],
      "active": true,
      "type": [ {
        "coding": [ {
          "system": "http://terminology.hl7.org/CodeSystem/organization-type",
          "code": "pay",
          "display": "Payer"
        } ]
      } ],
      "name": "Blue Cross Blue Shield of Texas",
      "telecom": [ {
        "system": "phone",
        "value": "(+1) 972-766-6900"
      } ],
      "address": [ {
        "use": "billing",
        "type": "postal",
        "line": [ "P.O. Box 660044" ],
        "city": "Dallas",
        "state": "TX",
        "postalCode": "75266-0044",
        "country": "USA"
      } ]
    },
    "request": {
      "method": "POST",
      "url": "Organization/123456"
    }
  }, {
    "fullUrl": "https://madie.cms.gov/Practitioner/practitioner-123456",
    "resource": {
      "resourceType": "Practitioner",
      "id": "practitioner-123456",
      "identifier": [ {
        "system": "http://hl7.org/fhir/sid/us-npi",
        "value": "123456"
      } ],
      "name": [ {
        "family": "Evil",
        "prefix": [ "Dr" ]
      } ]
    },
    "request": {
      "method": "POST",
      "url": "Practitioner/practitioner-123456"
    }
  }, {
    "fullUrl": "https://madie.cms.gov/MeasureReport/5478a8a2-ef25-4feb-a0d6-83b8b7d5d854",
    "resource": {
      "resourceType": "MeasureReport",
      "id": "5478a8a2-ef25-4feb-a0d6-83b8b7d5d854",
      "meta": {
        "profile": [ "http://hl7.org/fhir/us/cqfmeasures/StructureDefinition/test-case-cqfm" ]
      },
      "contained": [ {
        "resourceType": "Parameters",
        "id": "0614d395-9273-4b24-a3d8-30caaa531e26-parameters",
        "parameter": [ {
          "name": "subject",
          "valueString": "7e3bf20a-7a5b-4d50-aa34-267ab19da7b2"
        } ]
      } ],
      "extension": [ {
        "url": "http://hl7.org/fhir/us/cqfmeasures/StructureDefinition/cqfm-inputParameters",
        "valueReference": {
          "reference": "#0614d395-9273-4b24-a3d8-30caaa531e26-parameters"
        }
      }, {
        "url": "http://hl7.org/fhir/us/cqfmeasures/StructureDefinition/cqfm-testCaseDescription",
        "valueMarkdown": "\"Patient receives antithrombotic in the ED. MedAntithromboticStart EQ 1day \nglobal.\"\"Hospitalization\"\" =(Ed+IP)\"\n"
      } ],
      "modifierExtension": [ {
        "url": "http://hl7.org/fhir/us/cqfmeasures/StructureDefinition/cqfm-isTestCase",
        "valueBoolean": true
      } ],
      "status": "complete",
      "type": "individual",
      "measure": "https://madie.cms.gov/Measure/AntithromboticTherapyByEndofHospitalDay2FHIR",
      "period": {
        "start": "2025-01-01",
        "end": "2025-12-31"
      },
      "group": [ {
        "population": [ {
          "code": {
            "coding": [ {
              "system": "http://terminology.hl7.org/CodeSystem/measure-population",
              "code": "initial-population",
              "display": "Initial Population"
            } ]
          },
          "count": 1
        }, {
          "code": {
            "coding": [ {
              "system": "http://terminology.hl7.org/CodeSystem/measure-population",
              "code": "denominator",
              "display": "Denominator"
            } ]
          },
          "count": 1
        }, {
          "code": {
            "coding": [ {
              "system": "http://terminology.hl7.org/CodeSystem/measure-population",
              "code": "denominator-exclusion",
              "display": "Denominator Exclusion"
            } ]
          },
          "count": 0
        }, {
          "code": {
            "coding": [ {
              "system": "http://terminology.hl7.org/CodeSystem/measure-population",
              "code": "numerator",
              "display": "Numerator"
            } ]
          },
          "count": 1
        }, {
          "code": {
            "coding": [ {
              "system": "http://terminology.hl7.org/CodeSystem/measure-population",
              "code": "denominator-exception",
              "display": "Denominator Exception"
            } ]
          },
          "count": 0
        } ]
      } ],
      "evaluatedResource": [ {
        "reference": "https://madie.cms.gov/Patient/7e3bf20a-7a5b-4d50-aa34-267ab19da7b2"
      }, {
        "reference": "https://madie.cms.gov/Encounter/5c954893b848462de0ae626b"
      }, {
        "reference": "https://madie.cms.gov/Encounter/5c954893b848462de0ae626c"
      }, {
        "reference": "https://madie.cms.gov/MedicationAdministration/5c954893b848462de0ae626e"
      }, {
        "reference": "https://madie.cms.gov/Coverage/5e20a36d1c76ba6c5896ebf0"
      }, {
        "reference": "https://madie.cms.gov/Condition/ischemic-stroke-7d65"
      }, {
        "reference": "https://madie.cms.gov/Organization/123456"
      }, {
        "reference": "https://madie.cms.gov/Practitioner/practitioner-123456"
      } ]
    },
    "request": {
      "method": "POST",
      "url": "MeasureReport/5478a8a2-ef25-4feb-a0d6-83b8b7d5d854"
    }
  } ]
}