{"resourceType":"Bundle","id":"tests-2c19f236-637f-41bf-866e-681fe3e8af75-bundle","type":"transaction","entry":[{"fullUrl":"https://madie.cms.gov/Patient/2c19f236-637f-41bf-866e-681fe3e8af75","resource":{"resourceType":"Patient","id":"2c19f236-637f-41bf-866e-681fe3e8af75","meta":{"profile":["http://hl7.org/fhir/us/qicore/StructureDefinition/qicore-patient"]},"extension":[{"url":"http://hl7.org/fhir/us/core/StructureDefinition/us-core-ethnicity","extension":[{"url":"ombCategory","valueCoding":{"system":"urn:oid:2.16.840.1.113883.6.238","code":"2135-2","display":"Hispanic or Latino","userSelected":true}},{"url":"text","valueString":"Hispanic or Latino"}]}],"identifier":[{"type":{"coding":[{"system":"http://terminology.hl7.org/CodeSystem/v2-0203","code":"MR"}]},"system":"https://bonnie-fhir.healthit.gov/","value":"62ec29c4ea03a4ebacd6a07f"}],"name":[{"family":"IPPDenomFail","given":["EncStatusNotFinished"]}],"gender":"male","birthDate":"2007-01-01"},"request":{"method":"PUT","url":"Patient/2c19f236-637f-41bf-866e-681fe3e8af75"}},{"fullUrl":"https://madie.cms.gov/Encounter/encounter-to-document-medications-a080","resource":{"resourceType":"Encounter","id":"encounter-to-document-medications-a080","meta":{"profile":["http://hl7.org/fhir/us/qicore/StructureDefinition/qicore-encounter"]},"status":"in-progress","class":{"system":"http://terminology.hl7.org/CodeSystem/v3-ActCode","code":"IMP","display":"inpatient encounter"},"type":[{"coding":[{"system":"http://snomed.info/sct","version":"2022-03","code":"10197000","display":"Psychiatric interview and evaluation (procedure)","userSelected":true}]}],"subject":{"reference":"Patient/2c19f236-637f-41bf-866e-681fe3e8af75"},"period":{"start":"2025-12-31T08:00:00.000+00:00","end":"2025-12-31T08:15:00.000+00:00"}},"request":{"method":"PUT","url":"Encounter/encounter-to-document-medications-a080"}},{"fullUrl":"https://madie.cms.gov/MeasureReport/58ccb9fe-ba9e-4c81-bcbb-9e6d5f771a5c","resource":{"resourceType":"MeasureReport","id":"58ccb9fe-ba9e-4c81-bcbb-9e6d5f771a5c","meta":{"profile":["http://hl7.org/fhir/us/cqfmeasures/StructureDefinition/test-case-cqfm"]},"contained":[{"resourceType":"Parameters","id":"30426690-e45c-4734-9bff-999963f347d6-parameters","parameter":[{"name":"subject","valueString":"2c19f236-637f-41bf-866e-681fe3e8af75"}]}],"extension":[{"url":"http://hl7.org/fhir/us/cqfmeasures/StructureDefinition/cqfm-inputParameters","valueReference":{"reference":"#30426690-e45c-4734-9bff-999963f347d6-parameters"}},{"url":"http://hl7.org/fhir/us/cqfmeasures/StructureDefinition/cqfm-testCaseDescription","valueMarkdown":"Qualifying Encounter during MP (status not finished) "}],"modifierExtension":[{"url":"http://hl7.org/fhir/us/cqfmeasures/StructureDefinition/cqfm-isTestCase","valueBoolean":true}],"status":"complete","type":"individual","measure":"https://madie.cms.gov/Measure/DocumentationofCurrentMedicationsFHIR","period":{"start":"2025-01-01","end":"2025-12-31"},"group":[{"population":[{"code":{"coding":[{"system":"http://terminology.hl7.org/CodeSystem/measure-population","code":"initial-population","display":"Initial Population"}]},"count":0},{"code":{"coding":[{"system":"http://terminology.hl7.org/CodeSystem/measure-population","code":"denominator","display":"Denominator"}]},"count":0},{"code":{"coding":[{"system":"http://terminology.hl7.org/CodeSystem/measure-population","code":"numerator","display":"Numerator"}]},"count":0},{"code":{"coding":[{"system":"http://terminology.hl7.org/CodeSystem/measure-population","code":"denominator-exception","display":"Denominator Exception"}]},"count":0}]}],"evaluatedResource":[{"reference":"Patient/2c19f236-637f-41bf-866e-681fe3e8af75"},{"reference":"Encounter/encounter-to-document-medications-a080"}]},"request":{"method":"PUT","url":"MeasureReport/58ccb9fe-ba9e-4c81-bcbb-9e6d5f771a5c"}}]}