{"resourceType":"Bundle","id":"tests-f035a977-30d0-487c-b542-a596e718420c-bundle","type":"transaction","entry":[{"fullUrl":"https://madie.cms.gov/Patient/f035a977-30d0-487c-b542-a596e718420c","resource":{"resourceType":"Patient","id":"f035a977-30d0-487c-b542-a596e718420c","meta":{"profile":["http://hl7.org/fhir/us/qicore/StructureDefinition/qicore-patient"]},"text":{"status":"generated","div":"<div xmlns=\"http://www.w3.org/1999/xhtml\"><div class=\"hapiHeaderText\">INR4DayAfterAnes <b>NUMERPASS </b></div><table class=\"hapiPropertyTable\"><tbody><tr><td>Identifier</td><td>61ceb527a4f89bd1b9709703ac13c101</td></tr><tr><td>Date of birth</td><td><span>03 March 1974</span></td></tr></tbody></table></div>"},"extension":[{"url":"http://hl7.org/fhir/us/core/StructureDefinition/us-core-race","extension":[{"url":"ombCategory","valueCoding":{"system":"urn:oid:2.16.840.1.113883.6.238","code":"1002-5","display":"American Indian or Alaska Native","userSelected":true}},{"url":"text","valueString":"American Indian or Alaska Native"}]},{"url":"http://hl7.org/fhir/us/core/StructureDefinition/us-core-ethnicity","extension":[{"url":"ombCategory","valueCoding":{"system":"urn:oid:2.16.840.1.113883.6.238","code":"2135-2","display":"Hispanic or Latino","userSelected":true}},{"url":"text","valueString":"Hispanic or Latino"}]}],"identifier":[{"type":{"coding":[{"system":"http://terminology.hl7.org/CodeSystem/v2-0203","code":"MR"}]},"system":"https://bonnie-fhir.healthit.gov/","value":"612e6ed002c62a011f2efb28"}],"active":true,"name":[{"use":"usual","family":"NUMERPass","given":["INR4DayAfterAnes"]}],"gender":"female","birthDate":"1974-03-03"},"request":{"method":"PUT","url":"Patient/f035a977-30d0-487c-b542-a596e718420c"}},{"fullUrl":"https://madie.cms.gov/Encounter/5ce8096db848467c29eaf098","resource":{"resourceType":"Encounter","id":"4420b3b5-d8a4-48fd-82c0-bf04e0145f2d","meta":{"profile":["http://hl7.org/fhir/us/qicore/StructureDefinition/qicore-encounter"]},"status":"finished","class":{"system":"http://terminology.hl7.org/CodeSystem/v3-ActCode","code":"IMP","display":"inpatient encounter"},"type":[{"coding":[{"system":"http://snomed.info/sct","code":"8715000"}]}],"subject":{"reference":"Patient/f035a977-30d0-487c-b542-a596e718420c"},"period":{"start":"2025-12-04T08:00:00+00:00","end":"2025-12-30T08:15:00+00:00"},"length":{"value":26.0,"unit":"days"},"location":[{"location":{"reference":"Location/intensive-care-unit-6455"},"period":{"start":"2025-12-06T08:00:00+00:00","end":"2025-12-12T08:15:00+00:00"}}]},"request":{"method":"PUT","url":"Encounter/4420b3b5-d8a4-48fd-82c0-bf04e0145f2d"}},{"fullUrl":"https://madie.cms.gov/Coverage/5fa040f01c76ba66d9958f52","resource":{"resourceType":"Coverage","id":"1a2b965f-fac4-45b8-badc-fa7d9e9c1d99","status":"active","beneficiary":{"reference":"Patient/f035a977-30d0-487c-b542-a596e718420c"},"period":{"start":"1974-03-03T08:00:00+00:00"},"payor":[{"reference":"Organization/4b5a882f-1f43-485c-85c6-f5ad2337d5b1"}]},"request":{"method":"PUT","url":"Coverage/1a2b965f-fac4-45b8-badc-fa7d9e9c1d99"}},{"fullUrl":"https://madie.cms.gov/Observation/5ce8096db848467c29eaf09a","resource":{"resourceType":"Observation","id":"d9446365-09da-4c30-840d-e41ff4c50a12","meta":{"profile":["http://hl7.org/fhir/us/core/StructureDefinition/us-core-observation-lab"]},"status":"final","category":[{"coding":[{"system":"http://terminology.hl7.org/CodeSystem/observation-category","code":"laboratory","display":"Laboratory"}]}],"code":{"coding":[{"system":"http://loinc.org","code":"34714-6"}]},"subject":{"reference":"Patient/f035a977-30d0-487c-b542-a596e718420c"},"effectiveDateTime":"2025-12-08T11:30:00+00:00","issued":"2025-12-06T11:30:00+00:00","valueQuantity":{"value":4.0,"unit":"{INR}"}},"request":{"method":"PUT","url":"Observation/d9446365-09da-4c30-840d-e41ff4c50a12"}},{"fullUrl":"https://madie.cms.gov/Procedure/5ce8096db848467c29eaf099","resource":{"resourceType":"Procedure","id":"63393502-4e80-4fdd-80cc-efd9e76c76b4","meta":{"profile":["http://hl7.org/fhir/us/qicore/StructureDefinition/qicore-procedure"]},"extension":[{"url":"http://hl7.org/fhir/us/qicore/StructureDefinition/qicore-recorded","valueDateTime":"2012-12-08T09:35:00-04:00"}],"status":"completed","code":{"coding":[{"system":"http://snomed.info/sct","code":"18946005"}]},"subject":{"reference":"Patient/f035a977-30d0-487c-b542-a596e718420c"},"performedPeriod":{"start":"2025-12-07T10:00:00+00:00","end":"2025-12-07T10:30:00+00:00"}},"request":{"method":"PUT","url":"Procedure/63393502-4e80-4fdd-80cc-efd9e76c76b4"}},{"fullUrl":"https://madie.cms.gov/Location/intensive-care-unit-6455","resource":{"resourceType":"Location","id":"2c0b7dbb-870a-4577-b23f-1b2c2b1f38a0","meta":{"profile":["http://hl7.org/fhir/us/qicore/StructureDefinition/qicore-location"]},"identifier":[{"use":"usual","system":"http://exampleoflocation.com","value":"B1-S.F2"}],"name":"Medical Surgical East, first floor","type":[{"coding":[{"system":"https://www.cdc.gov/nhsn/cdaportal/terminology/codesystem/hsloc.html","code":"1025-6","display":"Trauma Critical Care","userSelected":true}]}]},"request":{"method":"PUT","url":"Location/2c0b7dbb-870a-4577-b23f-1b2c2b1f38a0"}},{"fullUrl":"https://madie.cms.gov/Organization/123456","resource":{"resourceType":"Organization","id":"4b5a882f-1f43-485c-85c6-f5ad2337d5b1","meta":{"profile":["http://hl7.org/fhir/us/qicore/StructureDefinition/qicore-organization"]},"identifier":[{"use":"temp","system":"urn:oid:2.16.840.1.113883.4.4","value":"21-3259825"}],"active":true,"type":[{"coding":[{"system":"http://terminology.hl7.org/CodeSystem/organization-type","code":"pay","display":"Payer"}]}],"name":"Blue Cross Blue Shield of Texas","telecom":[{"system":"phone","value":"(+1) 972-766-6900"}],"address":[{"use":"billing","type":"postal","line":["P.O. Box 660044"],"city":"Dallas","state":"TX","postalCode":"75266-0044","country":"USA"}]},"request":{"method":"PUT","url":"Organization/4b5a882f-1f43-485c-85c6-f5ad2337d5b1"}},{"fullUrl":"https://madie.cms.gov/Practitioner/practitioner-123456","resource":{"resourceType":"Practitioner","id":"11b58471-10cd-438d-a39f-a7a3e8a2e7d8","identifier":[{"system":"http://hl7.org/fhir/sid/us-npi","value":"123456"}],"name":[{"family":"Evil","prefix":["Dr"]}]},"request":{"method":"PUT","url":"Practitioner/11b58471-10cd-438d-a39f-a7a3e8a2e7d8"}},{"fullUrl":"https://madie.cms.gov/MeasureReport/ea3a1b88-147c-43f9-ada4-bdafc1b0a693","resource":{"resourceType":"MeasureReport","id":"ea3a1b88-147c-43f9-ada4-bdafc1b0a693","meta":{"profile":["http://hl7.org/fhir/us/cqfmeasures/StructureDefinition/test-case-cqfm"]},"contained":[{"resourceType":"Parameters","id":"1e6e104c-5692-47f9-84f3-3c35a1a0c06b-parameters","parameter":[{"name":"subject","valueString":"f035a977-30d0-487c-b542-a596e718420c"}]}],"extension":[{"url":"http://hl7.org/fhir/us/cqfmeasures/StructureDefinition/cqfm-inputParameters","valueReference":{"reference":"#1e6e104c-5692-47f9-84f3-3c35a1a0c06b-parameters"}},{"url":"http://hl7.org/fhir/us/cqfmeasures/StructureDefinition/cqfm-testCaseDescription","valueMarkdown":"INR4DayAfterAnes\n"}],"modifierExtension":[{"url":"http://hl7.org/fhir/us/cqfmeasures/StructureDefinition/cqfm-isTestCase","valueBoolean":true}],"status":"complete","type":"individual","measure":"https://madie.cms.gov/Measure/IntensiveCareUnitVenousThromboembolismProphylaxisFHIR","period":{"start":"2025-01-01","end":"2025-12-31"},"group":[{"population":[{"code":{"coding":[{"system":"http://terminology.hl7.org/CodeSystem/measure-population","code":"initial-population","display":"Initial Population"}]},"count":1},{"code":{"coding":[{"system":"http://terminology.hl7.org/CodeSystem/measure-population","code":"denominator","display":"Denominator"}]},"count":1},{"code":{"coding":[{"system":"http://terminology.hl7.org/CodeSystem/measure-population","code":"denominator-exclusion","display":"Denominator Exclusion"}]},"count":0},{"code":{"coding":[{"system":"http://terminology.hl7.org/CodeSystem/measure-population","code":"numerator","display":"Numerator"}]},"count":1},{"code":{"coding":[{"system":"http://terminology.hl7.org/CodeSystem/measure-population","code":"denominator-exception","display":"Denominator Exception"}]},"count":0}]}]},"request":{"method":"PUT","url":"MeasureReport/ea3a1b88-147c-43f9-ada4-bdafc1b0a693"}}]}