{"resourceType":"Bundle","id":"tests-0d48b3b3-c5f0-4955-810d-eb4f1b8714ca-bundle","type":"transaction","entry":[{"fullUrl":"https://madie.cms.gov/Patient/0d48b3b3-c5f0-4955-810d-eb4f1b8714ca","resource":{"resourceType":"Patient","id":"0d48b3b3-c5f0-4955-810d-eb4f1b8714ca","meta":{"profile":["http://hl7.org/fhir/us/qicore/StructureDefinition/qicore-patient"]},"text":{"status":"generated","div":"<div xmlns=\"http://www.w3.org/1999/xhtml\"><div class=\"hapiHeaderText\">FactorXa1MinAfterICUStartEncDxAFib <b>NUMERPASS </b></div><table class=\"hapiPropertyTable\"><tbody><tr><td>Identifier</td><td>213d087eb3bd92b3f3f6cdf55e6533f5</td></tr><tr><td>Date of birth</td><td><span>03 March 1974</span></td></tr></tbody></table></div>"},"extension":[{"url":"http://hl7.org/fhir/us/core/StructureDefinition/us-core-race","extension":[{"url":"ombCategory","valueCoding":{"system":"urn:oid:2.16.840.1.113883.6.238","code":"1002-5","display":"American Indian or Alaska Native","userSelected":true}},{"url":"text","valueString":"American Indian or Alaska Native"}]},{"url":"http://hl7.org/fhir/us/core/StructureDefinition/us-core-ethnicity","extension":[{"url":"ombCategory","valueCoding":{"system":"urn:oid:2.16.840.1.113883.6.238","code":"2135-2","display":"Hispanic or Latino","userSelected":true}},{"url":"text","valueString":"Hispanic or Latino"}]}],"identifier":[{"type":{"coding":[{"system":"http://terminology.hl7.org/CodeSystem/v2-0203","code":"MR"}]},"system":"https://bonnie-fhir.healthit.gov/","value":"612e6f3902c62a011f2f1183"}],"active":true,"name":[{"use":"usual","family":"NUMERPass","given":["FactorXa1MinAfterICUStartEncDxAFib"]}],"gender":"female","birthDate":"1974-03-03"},"request":{"method":"PUT","url":"Patient/0d48b3b3-c5f0-4955-810d-eb4f1b8714ca"}},{"fullUrl":"https://madie.cms.gov/Encounter/5ce8096fb848467c29eaf18b","resource":{"resourceType":"Encounter","id":"1f2ec8aa-1c28-43d1-bf00-5daa964e390c","meta":{"profile":["http://hl7.org/fhir/us/qicore/StructureDefinition/qicore-encounter"]},"status":"finished","class":{"system":"http://terminology.hl7.org/CodeSystem/v3-ActCode","code":"IMP","display":"inpatient encounter"},"type":[{"coding":[{"system":"http://snomed.info/sct","code":"8715000"}]}],"subject":{"reference":"Patient/0d48b3b3-c5f0-4955-810d-eb4f1b8714ca"},"period":{"start":"2025-12-04T08:00:00+00:00","end":"2025-12-30T08:15:00+00:00"},"length":{"value":26.0,"unit":"days"},"diagnosis":[{"condition":{"reference":"Condition/atrial-fibrillation-flutter-a334"}}],"location":[{"location":{"reference":"Location/intensive-care-unit-a333"},"period":{"start":"2025-12-06T08:00:00.000+00:00","end":"2025-12-08T08:15:00.000+00:00"}}]},"request":{"method":"PUT","url":"Encounter/1f2ec8aa-1c28-43d1-bf00-5daa964e390c"}},{"fullUrl":"https://madie.cms.gov/Coverage/5fa041011c76ba66d9959087","resource":{"resourceType":"Coverage","id":"0023ab3e-a5ab-4106-b66a-ea7ff987c804","status":"active","beneficiary":{"reference":"Patient/0d48b3b3-c5f0-4955-810d-eb4f1b8714ca"},"period":{"start":"1974-03-03T08:00:00+00:00"},"payor":[{"reference":"Organization/84b56847-ad40-4bf6-b612-9e42ad2a84e5"}]},"request":{"method":"PUT","url":"Coverage/0023ab3e-a5ab-4106-b66a-ea7ff987c804"}},{"fullUrl":"https://madie.cms.gov/MedicationAdministration/5ce8096fb848467c29eaf18c","resource":{"resourceType":"MedicationAdministration","id":"976c4cb4-ba6c-42f1-a503-ce1cf78ced2a","meta":{"profile":["http://hl7.org/fhir/us/qicore/StructureDefinition/qicore-medicationadministration"]},"status":"completed","medicationCodeableConcept":{"coding":[{"system":"http://www.nlm.nih.gov/research/umls/rxnorm","code":"1364435","display":"apixaban 2.5 MG Oral Tablet","userSelected":true}]},"subject":{"reference":"Patient/0d48b3b3-c5f0-4955-810d-eb4f1b8714ca"},"effectivePeriod":{"start":"2025-12-06T08:01:00+00:00"}},"request":{"method":"PUT","url":"MedicationAdministration/976c4cb4-ba6c-42f1-a503-ce1cf78ced2a"}},{"fullUrl":"https://madie.cms.gov/Location/intensive-care-unit-a333","resource":{"resourceType":"Location","id":"fa904dba-16cb-4694-b696-14a1b335a237","meta":{"profile":["http://hl7.org/fhir/us/qicore/StructureDefinition/qicore-location"]},"identifier":[{"use":"usual","system":"http://exampleoflocation.com","value":"B1-S.F2"}],"name":"Medical Surgical East, first floor","type":[{"coding":[{"system":"https://www.cdc.gov/nhsn/cdaportal/terminology/codesystem/hsloc.html","code":"1025-6","display":"Trauma Critical Care","userSelected":true}]}]},"request":{"method":"PUT","url":"Location/fa904dba-16cb-4694-b696-14a1b335a237"}},{"fullUrl":"https://madie.cms.gov/Condition/atrial-fibrillation-flutter-a334","resource":{"resourceType":"Condition","id":"ef9437b7-7f61-433b-9de6-cfaec36aa8bc","meta":{"profile":["http://hl7.org/fhir/us/qicore/StructureDefinition/qicore-condition"]},"category":[{"coding":[{"system":"http://terminology.hl7.org/CodeSystem/condition-category","code":"encounter-diagnosis","display":"Encounter Diagnosis"}]}],"code":{"coding":[{"system":"http://snomed.info/sct","version":"2025-09","code":"120041000119109","display":"Atrial fibrillation with rapid ventricular response (disorder)","userSelected":true}]},"subject":{"reference":"Patient/0d48b3b3-c5f0-4955-810d-eb4f1b8714ca"},"recordedDate":"2025-10-20T08:00:00.000+00:00"},"request":{"method":"PUT","url":"Condition/ef9437b7-7f61-433b-9de6-cfaec36aa8bc"}},{"fullUrl":"https://madie.cms.gov/Organization/123456","resource":{"resourceType":"Organization","id":"84b56847-ad40-4bf6-b612-9e42ad2a84e5","meta":{"profile":["http://hl7.org/fhir/us/qicore/StructureDefinition/qicore-organization"]},"identifier":[{"use":"temp","system":"urn:oid:2.16.840.1.113883.4.4","value":"21-3259825"}],"active":true,"type":[{"coding":[{"system":"http://terminology.hl7.org/CodeSystem/organization-type","code":"pay","display":"Payer"}]}],"name":"Blue Cross Blue Shield of Texas","telecom":[{"system":"phone","value":"(+1) 972-766-6900"}],"address":[{"use":"billing","type":"postal","line":["P.O. Box 660044"],"city":"Dallas","state":"TX","postalCode":"75266-0044","country":"USA"}]},"request":{"method":"PUT","url":"Organization/84b56847-ad40-4bf6-b612-9e42ad2a84e5"}},{"fullUrl":"https://madie.cms.gov/Practitioner/practitioner-123456","resource":{"resourceType":"Practitioner","id":"50507547-7852-4ac7-adcd-e4b26e1bae7e","identifier":[{"system":"http://hl7.org/fhir/sid/us-npi","value":"123456"}],"name":[{"family":"Evil","prefix":["Dr"]}]},"request":{"method":"PUT","url":"Practitioner/50507547-7852-4ac7-adcd-e4b26e1bae7e"}},{"fullUrl":"https://madie.cms.gov/MeasureReport/51419cc4-d27f-4ac5-9a66-fabf5d6d75b8","resource":{"resourceType":"MeasureReport","id":"51419cc4-d27f-4ac5-9a66-fabf5d6d75b8","meta":{"profile":["http://hl7.org/fhir/us/cqfmeasures/StructureDefinition/test-case-cqfm"]},"contained":[{"resourceType":"Parameters","id":"e9488833-fc19-4803-bc26-4beacf23d486-parameters","parameter":[{"name":"subject","valueString":"0d48b3b3-c5f0-4955-810d-eb4f1b8714ca"}]}],"extension":[{"url":"http://hl7.org/fhir/us/cqfmeasures/StructureDefinition/cqfm-inputParameters","valueReference":{"reference":"#e9488833-fc19-4803-bc26-4beacf23d486-parameters"}},{"url":"http://hl7.org/fhir/us/cqfmeasures/StructureDefinition/cqfm-testCaseDescription","valueMarkdown":"Oral factor Xa administered 1 min after ICU.start, Enc Dx of atrial fibrillation.\n"}],"modifierExtension":[{"url":"http://hl7.org/fhir/us/cqfmeasures/StructureDefinition/cqfm-isTestCase","valueBoolean":true}],"status":"complete","type":"individual","measure":"https://madie.cms.gov/Measure/IntensiveCareUnitVenousThromboembolismProphylaxisFHIR","period":{"start":"2025-01-01","end":"2025-12-31"},"group":[{"population":[{"code":{"coding":[{"system":"http://terminology.hl7.org/CodeSystem/measure-population","code":"initial-population","display":"Initial Population"}]},"count":1},{"code":{"coding":[{"system":"http://terminology.hl7.org/CodeSystem/measure-population","code":"denominator","display":"Denominator"}]},"count":1},{"code":{"coding":[{"system":"http://terminology.hl7.org/CodeSystem/measure-population","code":"denominator-exclusion","display":"Denominator Exclusion"}]},"count":0},{"code":{"coding":[{"system":"http://terminology.hl7.org/CodeSystem/measure-population","code":"numerator","display":"Numerator"}]},"count":1},{"code":{"coding":[{"system":"http://terminology.hl7.org/CodeSystem/measure-population","code":"denominator-exception","display":"Denominator Exception"}]},"count":0}]}]},"request":{"method":"PUT","url":"MeasureReport/51419cc4-d27f-4ac5-9a66-fabf5d6d75b8"}}]}