{"resourceType":"Bundle","id":"tests-2346628d-419a-491b-81d8-08c74ca8ea61-bundle","type":"transaction","entry":[{"fullUrl":"https://madie.cms.gov/Patient/2346628d-419a-491b-81d8-08c74ca8ea61","resource":{"resourceType":"Patient","id":"2346628d-419a-491b-81d8-08c74ca8ea61","meta":{"profile":["http://hl7.org/fhir/us/qicore/StructureDefinition/qicore-patient"]},"text":{"status":"generated","div":"<div xmlns=\"http://www.w3.org/1999/xhtml\"><div class=\"hapiHeaderText\">CMODuringEDDoNotPerformFalse <b>DENEXPass </b></div><table class=\"hapiPropertyTable\"><tbody><tr><td>Identifier</td><td>45452ea1dc23640e1878befc89e45fab</td></tr><tr><td>Date of birth</td><td><span>03 March 1974</span></td></tr></tbody></table></div>"},"extension":[{"url":"http://hl7.org/fhir/us/core/StructureDefinition/us-core-race","extension":[{"url":"ombCategory","valueCoding":{"system":"urn:oid:2.16.840.1.113883.6.238","code":"1002-5","display":"American Indian or Alaska Native","userSelected":true}},{"url":"text","valueString":"American Indian or Alaska Native"}]},{"url":"http://hl7.org/fhir/us/core/StructureDefinition/us-core-ethnicity","extension":[{"url":"ombCategory","valueCoding":{"system":"urn:oid:2.16.840.1.113883.6.238","code":"2135-2","display":"Hispanic or Latino","userSelected":true}},{"url":"text","valueString":"Hispanic or Latino"}]}],"identifier":[{"type":{"coding":[{"system":"http://terminology.hl7.org/CodeSystem/v2-0203","code":"MR"}]},"system":"https://bonnie-fhir.healthit.gov/","value":"612e6e7d02c62a011f2ee909"}],"active":true,"name":[{"use":"usual","family":"DENEXPass","given":["CMODuringEDDoNotPerformFalse"]}],"gender":"female","birthDate":"1974-03-03"},"request":{"method":"PUT","url":"Patient/2346628d-419a-491b-81d8-08c74ca8ea61"}},{"fullUrl":"https://madie.cms.gov/Encounter/5ce8096eb848467c29eaf115","resource":{"resourceType":"Encounter","id":"5ce8096eb848467c29eaf115","meta":{"profile":["http://hl7.org/fhir/us/qicore/StructureDefinition/qicore-encounter"]},"status":"finished","class":{"system":"http://terminology.hl7.org/CodeSystem/v3-ActCode","code":"EMER","display":"emergency"},"type":[{"coding":[{"system":"http://snomed.info/sct","code":"4525004"}]}],"subject":{"reference":"Patient/63050905-516c-41e9-8e97-c792143fdd0d"},"period":{"start":"2025-12-04T06:00:00+00:00","end":"2025-12-04T07:15:00+00:00"},"length":{"value":0,"unit":"days"}},"request":{"method":"PUT","url":"Encounter/5ce8096eb848467c29eaf115"}},{"fullUrl":"https://madie.cms.gov/Encounter/5ce8096eb848467c29eaf116","resource":{"resourceType":"Encounter","id":"5ce8096eb848467c29eaf116","meta":{"profile":["http://hl7.org/fhir/us/qicore/StructureDefinition/qicore-encounter"]},"status":"finished","class":{"system":"http://terminology.hl7.org/CodeSystem/v3-ActCode","code":"IMP","display":"inpatient encounter"},"type":[{"coding":[{"system":"http://snomed.info/sct","code":"8715000"}]}],"subject":{"reference":"Patient/63050905-516c-41e9-8e97-c792143fdd0d"},"period":{"start":"2025-12-04T08:00:00+00:00","end":"2025-12-30T08:15:00+00:00"},"length":{"value":26,"unit":"days"},"location":[{"location":{"reference":"Location/intensive-care-unit-7626"},"period":{"start":"2025-12-26T08:00:00.000+00:00","end":"2025-12-28T08:15:00.000+00:00"}}]},"request":{"method":"PUT","url":"Encounter/5ce8096eb848467c29eaf116"}},{"fullUrl":"https://madie.cms.gov/ServiceRequest/5ce8096eb848467c29eaf117","resource":{"resourceType":"ServiceRequest","id":"5ce8096eb848467c29eaf117","meta":{"profile":["http://hl7.org/fhir/us/qicore/StructureDefinition/qicore-servicerequest"]},"status":"completed","intent":"order","doNotPerform":false,"code":{"coding":[{"system":"http://snomed.info/sct","code":"133918004"}]},"subject":{"reference":"Patient/63050905-516c-41e9-8e97-c792143fdd0d"},"authoredOn":"2025-12-04T06:30:00+00:00"},"request":{"method":"PUT","url":"ServiceRequest/5ce8096eb848467c29eaf117"}},{"fullUrl":"https://madie.cms.gov/Coverage/5fa040f41c76ba66d9958fa6","resource":{"resourceType":"Coverage","id":"5fa040f41c76ba66d9958fa6","status":"active","beneficiary":{"reference":"Patient/63050905-516c-41e9-8e97-c792143fdd0d"},"period":{"start":"1974-03-03T08:00:00+00:00"},"payor":[{"reference":"Organization/Org-123456"}]},"request":{"method":"PUT","url":"Coverage/5fa040f41c76ba66d9958fa6"}},{"fullUrl":"https://madie.cms.gov/Location/intensive-care-unit-7625","resource":{"resourceType":"Location","id":"intensive-care-unit-7625","type":[{"coding":[{"system":"http://cts.nlm.nih.gov/fhir/cs/hsloc","version":"2020","code":"1025-6","display":"Trauma Critical Care","userSelected":true}]}]},"request":{"method":"PUT","url":"Location/intensive-care-unit-7625"}},{"fullUrl":"https://madie.cms.gov/Location/intensive-care-unit-7626","resource":{"resourceType":"Location","id":"intensive-care-unit-7626","meta":{"profile":["http://hl7.org/fhir/us/qicore/StructureDefinition/qicore-location"]},"identifier":[{"use":"usual","system":"http://exampleoflocation.com","value":"B1-S.F2"}],"name":"Medical Surgical East, first floor","type":[{"coding":[{"system":"https://www.cdc.gov/nhsn/cdaportal/terminology/codesystem/hsloc.html","code":"1025-6","display":"Trauma Critical Care","userSelected":true}]}]},"request":{"method":"PUT","url":"Location/intensive-care-unit-7626"}},{"fullUrl":"https://madie.cms.gov/Organization/123456","resource":{"resourceType":"Organization","id":"Org-123456","meta":{"profile":["http://hl7.org/fhir/us/qicore/StructureDefinition/qicore-organization"]},"identifier":[{"use":"temp","system":"urn:oid:2.16.840.1.113883.4.4","value":"21-3259825"}],"active":true,"type":[{"coding":[{"system":"http://terminology.hl7.org/CodeSystem/organization-type","code":"pay","display":"Payer"}]}],"name":"Blue Cross Blue Shield of Texas","telecom":[{"system":"phone","value":"(+1) 972-766-6900"}],"address":[{"use":"billing","type":"postal","line":["P.O. Box 660044"],"city":"Dallas","state":"TX","postalCode":"75266-0044","country":"USA"}]},"request":{"method":"PUT","url":"Organization/Org-123456"}},{"fullUrl":"https://madie.cms.gov/Practitioner/practitioner-123456","resource":{"resourceType":"Practitioner","id":"practitioner-123456","identifier":[{"system":"http://hl7.org/fhir/sid/us-npi","value":"123456"}],"name":[{"family":"Evil","prefix":["Dr"]}]},"request":{"method":"PUT","url":"Practitioner/practitioner-123456"}},{"fullUrl":"https://madie.cms.gov/MeasureReport/23da74d7-1c07-437c-8b77-eadc30559987","resource":{"resourceType":"MeasureReport","id":"23da74d7-1c07-437c-8b77-eadc30559987","meta":{"profile":["http://hl7.org/fhir/us/cqfmeasures/StructureDefinition/test-case-cqfm"]},"contained":[{"resourceType":"Parameters","id":"ad3a836b-2d77-42d5-8fb1-f946bd0898dd-parameters","parameter":[{"name":"subject","valueString":"2346628d-419a-491b-81d8-08c74ca8ea61"}]}],"extension":[{"url":"http://hl7.org/fhir/us/cqfmeasures/StructureDefinition/cqfm-inputParameters","valueReference":{"reference":"#ad3a836b-2d77-42d5-8fb1-f946bd0898dd-parameters"}},{"url":"http://hl7.org/fhir/us/cqfmeasures/StructureDefinition/cqfm-testCaseDescription","valueMarkdown":"test and cover servicerequest do not perform is false"}],"modifierExtension":[{"url":"http://hl7.org/fhir/us/cqfmeasures/StructureDefinition/cqfm-isTestCase","valueBoolean":true}],"status":"complete","type":"individual","measure":"https://madie.cms.gov/Measure/IntensiveCareUnitVenousThromboembolismProphylaxisFHIR","period":{"start":"2025-01-01","end":"2025-12-31"},"group":[{"population":[{"code":{"coding":[{"system":"http://terminology.hl7.org/CodeSystem/measure-population","code":"initial-population","display":"Initial Population"}]},"count":1},{"code":{"coding":[{"system":"http://terminology.hl7.org/CodeSystem/measure-population","code":"denominator","display":"Denominator"}]},"count":1},{"code":{"coding":[{"system":"http://terminology.hl7.org/CodeSystem/measure-population","code":"denominator-exclusion","display":"Denominator Exclusion"}]},"count":1},{"code":{"coding":[{"system":"http://terminology.hl7.org/CodeSystem/measure-population","code":"numerator","display":"Numerator"}]},"count":0},{"code":{"coding":[{"system":"http://terminology.hl7.org/CodeSystem/measure-population","code":"denominator-exception","display":"Denominator Exception"}]},"count":0}]}],"evaluatedResource":[{"reference":"Patient/2346628d-419a-491b-81d8-08c74ca8ea61"},{"reference":"Encounter/5ce8096eb848467c29eaf115"},{"reference":"Encounter/5ce8096eb848467c29eaf116"},{"reference":"ServiceRequest/5ce8096eb848467c29eaf117"},{"reference":"Coverage/5fa040f41c76ba66d9958fa6"},{"reference":"Location/intensive-care-unit-7625"},{"reference":"Location/intensive-care-unit-7626"},{"reference":"Organization/Org-123456"},{"reference":"Practitioner/practitioner-123456"}]},"request":{"method":"PUT","url":"MeasureReport/23da74d7-1c07-437c-8b77-eadc30559987"}}]}