{"resourceType":"Bundle","id":"tests-eea9698a-bf0d-4128-afc2-a646062acbef-bundle","type":"transaction","entry":[{"fullUrl":"https://madie.cms.gov/Patient/eea9698a-bf0d-4128-afc2-a646062acbef","resource":{"resourceType":"Patient","id":"eea9698a-bf0d-4128-afc2-a646062acbef","meta":{"profile":["http://hl7.org/fhir/us/qicore/StructureDefinition/qicore-patient"]},"text":{"status":"generated","div":"<div xmlns=\"http://www.w3.org/1999/xhtml\"><div class=\"hapiHeaderText\">ComfortMeasures1MinB4ICU <b>DENEXPASS </b></div><table class=\"hapiPropertyTable\"><tbody><tr><td>Identifier</td><td>1d0273693925f8e335ce9eb65ed102e1</td></tr><tr><td>Date of birth</td><td><span>03 March 1974</span></td></tr></tbody></table></div>"},"extension":[{"url":"http://hl7.org/fhir/us/core/StructureDefinition/us-core-race","extension":[{"url":"ombCategory","valueCoding":{"system":"urn:oid:2.16.840.1.113883.6.238","code":"1002-5","display":"American Indian or Alaska Native","userSelected":true}},{"url":"text","valueString":"American Indian or Alaska Native"}]},{"url":"http://hl7.org/fhir/us/core/StructureDefinition/us-core-ethnicity","extension":[{"url":"ombCategory","valueCoding":{"system":"urn:oid:2.16.840.1.113883.6.238","code":"2135-2","display":"Hispanic or Latino","userSelected":true}},{"url":"text","valueString":"Hispanic or Latino"}]}],"identifier":[{"type":{"coding":[{"system":"http://terminology.hl7.org/CodeSystem/v2-0203","code":"MR"}]},"system":"https://bonnie-fhir.healthit.gov/","value":"612e6eb302c62a011f2ef479"}],"active":true,"name":[{"use":"usual","family":"DENEXPass","given":["ComfortMeasures1MinB4ICU"]}],"gender":"female","birthDate":"1974-03-03"},"request":{"method":"PUT","url":"Patient/eea9698a-bf0d-4128-afc2-a646062acbef"}},{"fullUrl":"https://madie.cms.gov/Encounter/5ce8096db848467c29eaf0b2","resource":{"resourceType":"Encounter","id":"5ce8096db848467c29eaf0b2","meta":{"profile":["http://hl7.org/fhir/us/qicore/StructureDefinition/qicore-encounter"]},"status":"finished","class":{"system":"http://terminology.hl7.org/CodeSystem/v3-ActCode","code":"IMP","display":"inpatient encounter"},"type":[{"coding":[{"system":"http://snomed.info/sct","code":"8715000"}]}],"subject":{"reference":"Patient/eea9698a-bf0d-4128-afc2-a646062acbef"},"period":{"start":"2025-12-04T08:00:00.000+00:00","end":"2025-12-30T08:15:00.000+00:00"},"length":{"value":26.0,"unit":"days"},"location":[{"location":{"reference":"Location/intensive-care-unit-02b9"},"period":{"start":"2025-12-04T08:00:00.000+00:00","end":"2025-12-08T08:15:00.000+00:00"}}]},"request":{"method":"PUT","url":"Encounter/5ce8096db848467c29eaf0b2"}},{"fullUrl":"https://madie.cms.gov/ServiceRequest/5ce8096db848467c29eaf0b3","resource":{"resourceType":"ServiceRequest","id":"5ce8096db848467c29eaf0b3","meta":{"profile":["http://hl7.org/fhir/us/qicore/StructureDefinition/qicore-servicerequest"]},"status":"completed","intent":"order","code":{"coding":[{"system":"http://snomed.info/sct","code":"133918004"}]},"subject":{"reference":"Patient/eea9698a-bf0d-4128-afc2-a646062acbef"},"authoredOn":"2025-12-04T08:00:00+00:00"},"request":{"method":"PUT","url":"ServiceRequest/5ce8096db848467c29eaf0b3"}},{"fullUrl":"https://madie.cms.gov/Coverage/5fa040eb1c76ba66d9958efe","resource":{"resourceType":"Coverage","id":"5fa040eb1c76ba66d9958efe","status":"active","beneficiary":{"reference":"Patient/eea9698a-bf0d-4128-afc2-a646062acbef"},"period":{"start":"1974-03-03T08:00:00+00:00"},"payor":[{"reference":"Organization/Org-123456"}]},"request":{"method":"PUT","url":"Coverage/5fa040eb1c76ba66d9958efe"}},{"fullUrl":"https://madie.cms.gov/Location/intensive-care-unit-02b9","resource":{"resourceType":"Location","id":"intensive-care-unit-02b9","meta":{"profile":["http://hl7.org/fhir/us/qicore/StructureDefinition/qicore-location"]},"identifier":[{"use":"usual","system":"http://exampleoflocation.com","value":"B1-S.F2"}],"name":"Medical Surgical East, first floor","type":[{"coding":[{"system":"https://www.cdc.gov/nhsn/cdaportal/terminology/codesystem/hsloc.html","code":"1025-6","display":"Trauma Critical Care","userSelected":true}]}]},"request":{"method":"PUT","url":"Location/intensive-care-unit-02b9"}},{"fullUrl":"https://madie.cms.gov/Organization/123456","resource":{"resourceType":"Organization","id":"Org-123456","meta":{"profile":["http://hl7.org/fhir/us/qicore/StructureDefinition/qicore-organization"]},"identifier":[{"use":"temp","system":"urn:oid:2.16.840.1.113883.4.4","value":"21-3259825"}],"active":true,"type":[{"coding":[{"system":"http://terminology.hl7.org/CodeSystem/organization-type","code":"pay","display":"Payer"}]}],"name":"Blue Cross Blue Shield of Texas","telecom":[{"system":"phone","value":"(+1) 972-766-6900"}],"address":[{"use":"billing","type":"postal","line":["P.O. Box 660044"],"city":"Dallas","state":"TX","postalCode":"75266-0044","country":"USA"}]},"request":{"method":"PUT","url":"Organization/Org-123456"}},{"fullUrl":"https://madie.cms.gov/Practitioner/practitioner-123456","resource":{"resourceType":"Practitioner","id":"practitioner-123456","identifier":[{"system":"http://hl7.org/fhir/sid/us-npi","value":"123456"}],"name":[{"family":"Evil","prefix":["Dr"]}]},"request":{"method":"PUT","url":"Practitioner/practitioner-123456"}},{"fullUrl":"https://madie.cms.gov/MeasureReport/73a3bf47-d575-4e9f-879b-f43ca685d888","resource":{"resourceType":"MeasureReport","id":"73a3bf47-d575-4e9f-879b-f43ca685d888","meta":{"profile":["http://hl7.org/fhir/us/cqfmeasures/StructureDefinition/test-case-cqfm"]},"contained":[{"resourceType":"Parameters","id":"2512639f-0b42-4dc1-ba81-3a10af189ed6-parameters","parameter":[{"name":"subject","valueString":"eea9698a-bf0d-4128-afc2-a646062acbef"}]}],"extension":[{"url":"http://hl7.org/fhir/us/cqfmeasures/StructureDefinition/cqfm-inputParameters","valueReference":{"reference":"#2512639f-0b42-4dc1-ba81-3a10af189ed6-parameters"}},{"url":"http://hl7.org/fhir/us/cqfmeasures/StructureDefinition/cqfm-testCaseDescription","valueMarkdown":"comfort measures order starts during IP encounter, 1 minute before ICU admission\n"}],"modifierExtension":[{"url":"http://hl7.org/fhir/us/cqfmeasures/StructureDefinition/cqfm-isTestCase","valueBoolean":true}],"status":"complete","type":"individual","measure":"https://madie.cms.gov/Measure/IntensiveCareUnitVenousThromboembolismProphylaxisFHIR","period":{"start":"2025-01-01","end":"2025-12-31"},"group":[{"population":[{"code":{"coding":[{"system":"http://terminology.hl7.org/CodeSystem/measure-population","code":"initial-population","display":"Initial Population"}]},"count":1},{"code":{"coding":[{"system":"http://terminology.hl7.org/CodeSystem/measure-population","code":"denominator","display":"Denominator"}]},"count":1},{"code":{"coding":[{"system":"http://terminology.hl7.org/CodeSystem/measure-population","code":"denominator-exclusion","display":"Denominator Exclusion"}]},"count":1},{"code":{"coding":[{"system":"http://terminology.hl7.org/CodeSystem/measure-population","code":"numerator","display":"Numerator"}]},"count":0},{"code":{"coding":[{"system":"http://terminology.hl7.org/CodeSystem/measure-population","code":"denominator-exception","display":"Denominator Exception"}]},"count":0}]}],"evaluatedResource":[{"reference":"Patient/eea9698a-bf0d-4128-afc2-a646062acbef"},{"reference":"Encounter/5ce8096db848467c29eaf0b2"},{"reference":"ServiceRequest/5ce8096db848467c29eaf0b3"},{"reference":"Coverage/5fa040eb1c76ba66d9958efe"},{"reference":"Location/intensive-care-unit-02b9"},{"reference":"Organization/Org-123456"},{"reference":"Practitioner/practitioner-123456"}]},"request":{"method":"PUT","url":"MeasureReport/73a3bf47-d575-4e9f-879b-f43ca685d888"}}]}