{"resourceType":"Bundle","id":"tests-5109af7f-4d95-4372-8857-71d800f53100-bundle","type":"transaction","entry":[{"fullUrl":"https://madie.cms.gov/Patient/5109af7f-4d95-4372-8857-71d800f53100","resource":{"resourceType":"Patient","id":"5109af7f-4d95-4372-8857-71d800f53100","meta":{"profile":["http://hl7.org/fhir/us/qicore/StructureDefinition/qicore-patient"]},"text":{"status":"generated","div":"<div xmlns=\"http://www.w3.org/1999/xhtml\"><div class=\"hapiHeaderText\">MedReasonMOInjXaDOIPCOnAnesEndTime <b>NUMERPASS </b></div><table class=\"hapiPropertyTable\"><tbody><tr><td>Identifier</td><td>2e65528d235225a29036bb2a5e6ef1d4</td></tr><tr><td>Date of birth</td><td><span>02 January 1974</span></td></tr></tbody></table></div>"},"extension":[{"url":"http://hl7.org/fhir/us/core/StructureDefinition/us-core-race","extension":[{"url":"ombCategory","valueCoding":{"system":"urn:oid:2.16.840.1.113883.6.238","code":"1002-5","display":"American Indian or Alaska Native","userSelected":true}},{"url":"text","valueString":"American Indian or Alaska Native"}]},{"url":"http://hl7.org/fhir/us/core/StructureDefinition/us-core-ethnicity","extension":[{"url":"ombCategory","valueCoding":{"system":"urn:oid:2.16.840.1.113883.6.238","code":"2135-2","display":"Hispanic or Latino","userSelected":true}},{"url":"text","valueString":"Hispanic or Latino"}]}],"identifier":[{"type":{"coding":[{"system":"http://terminology.hl7.org/CodeSystem/v2-0203","code":"MR"}]},"system":"https://bonnie-fhir.healthit.gov/","value":"612e6a9302c62a011f2ea6da"}],"active":true,"name":[{"use":"usual","family":"NUMERPass","given":["MedReasonMOInjXaDOIPCOnAnesEndTime"]}],"gender":"male","birthDate":"1974-01-02"},"request":{"method":"PUT","url":"Patient/5109af7f-4d95-4372-8857-71d800f53100"}},{"fullUrl":"https://madie.cms.gov/Encounter/5ca6295fb8484628b8de1dd5","resource":{"resourceType":"Encounter","id":"f9b470c8-68ac-4c07-b16a-c3e9ebebaa36","meta":{"profile":["http://hl7.org/fhir/us/qicore/StructureDefinition/qicore-encounter"]},"status":"finished","class":{"system":"http://terminology.hl7.org/CodeSystem/v3-ActCode","code":"IMP","display":"inpatient encounter"},"type":[{"coding":[{"system":"http://snomed.info/sct","code":"8715000"}]}],"subject":{"reference":"Patient/5109af7f-4d95-4372-8857-71d800f53100"},"period":{"start":"2025-11-01T08:00:00+00:00","end":"2025-11-26T08:15:00+00:00"},"length":{"value":25.0,"unit":"days"},"location":[{"location":{"reference":"Location/Location-1"},"period":{"start":"2025-11-01T09:00:00.000+00:00","end":"2025-11-02T08:15:00.000+00:00"}}]},"request":{"method":"PUT","url":"Encounter/f9b470c8-68ac-4c07-b16a-c3e9ebebaa36"}},{"fullUrl":"https://madie.cms.gov/Coverage/5fa041501c76ba66d99591f3","resource":{"resourceType":"Coverage","id":"8b789388-1deb-4e64-ba06-d9b09fd58b07","status":"active","beneficiary":{"reference":"Patient/5109af7f-4d95-4372-8857-71d800f53100"},"period":{"start":"1974-01-02T08:00:00+00:00"},"payor":[{"reference":"Organization/806b0255-13cb-4f2b-9412-571554dd2169"}]},"request":{"method":"PUT","url":"Coverage/8b789388-1deb-4e64-ba06-d9b09fd58b07"}},{"fullUrl":"https://madie.cms.gov/ServiceRequest/intermittent-pneumatic-compression-devices-ipc-8a2e","resource":{"resourceType":"ServiceRequest","id":"3cb692d5-83c8-4e6f-8050-89c7246a6236","meta":{"profile":["http://hl7.org/fhir/us/qicore/StructureDefinition/qicore-servicenotrequested"]},"extension":[{"url":"http://hl7.org/fhir/us/qicore/StructureDefinition/qicore-doNotPerformReason","valueCodeableConcept":{"coding":[{"system":"http://snomed.info/sct","code":"183932001","display":"Procedure contraindicated (situation)"}]}}],"status":"completed","intent":"order","doNotPerform":true,"code":{"coding":[{"system":"http://snomed.info/sct","code":"428411000124104","display":"Intermittent pneumatic compression boot (physical object)","userSelected":true}]},"subject":{"reference":"Patient/5109af7f-4d95-4372-8857-71d800f53100"},"authoredOn":"2025-11-02T09:15:00+00:00"},"request":{"method":"PUT","url":"ServiceRequest/3cb692d5-83c8-4e6f-8050-89c7246a6236"}},{"fullUrl":"https://madie.cms.gov/MedicationRequest/5ca6295fb8484628b8de1dd7","resource":{"resourceType":"MedicationRequest","id":"f62a6885-cc22-411f-9364-6f507931e569","meta":{"profile":["http://hl7.org/fhir/us/qicore/StructureDefinition/qicore-mednotrequested"]},"status":"completed","intent":"order","category":[{"coding":[{"system":"http://terminology.hl7.org/CodeSystem/medicationrequest-category","code":"community"}]}],"doNotPerform":true,"medicationCodeableConcept":{"coding":[{"system":"http://www.nlm.nih.gov/research/umls/rxnorm","code":"861363"}]},"subject":{"reference":"Patient/5109af7f-4d95-4372-8857-71d800f53100"},"authoredOn":"2025-11-02T09:15:00+00:00","requester":{"reference":"Practitioner/example"},"reasonCode":[{"coding":[{"system":"http://snomed.info/sct","code":"183932001","display":"Procedure contraindicated (situation)","userSelected":true}]}],"dosageInstruction":[{"timing":{"repeat":{"boundsPeriod":{"start":"2025-11-03T09:00:00+00:00"}}}}]},"request":{"method":"PUT","url":"MedicationRequest/f62a6885-cc22-411f-9364-6f507931e569"}},{"fullUrl":"https://madie.cms.gov/Procedure/5ca6295fb8484628b8de1dd8","resource":{"resourceType":"Procedure","id":"7743e751-f294-4e16-88c8-ed9ac6046510","meta":{"profile":["http://hl7.org/fhir/us/qicore/StructureDefinition/qicore-procedure"]},"extension":[{"url":"http://hl7.org/fhir/us/qicore/StructureDefinition/qicore-recorded","valueDateTime":"2012-11-04T09:35:00-04:00"}],"status":"completed","code":{"coding":[{"system":"http://snomed.info/sct","code":"18946005"}]},"subject":{"reference":"Patient/5109af7f-4d95-4372-8857-71d800f53100"},"performedPeriod":{"start":"2025-11-02T09:00:00+00:00","end":"2025-11-02T09:15:00+00:00"}},"request":{"method":"PUT","url":"Procedure/7743e751-f294-4e16-88c8-ed9ac6046510"}},{"fullUrl":"https://madie.cms.gov/Location/Location-1","resource":{"resourceType":"Location","id":"dc317c8a-31b6-40b3-bf48-b3d9dd6e67f8","meta":{"profile":["http://hl7.org/fhir/us/qicore/StructureDefinition/qicore-location"]},"identifier":[{"use":"usual","system":"http://exampleoflocation.com","value":"B1-S.F2"}],"name":"Medical Surgical East, first floor","type":[{"coding":[{"system":"https://www.cdc.gov/nhsn/cdaportal/terminology/codesystem/hsloc.html","code":"1025-6","display":"Trauma Critical Care","userSelected":true}]}]},"request":{"method":"PUT","url":"Location/dc317c8a-31b6-40b3-bf48-b3d9dd6e67f8"}},{"fullUrl":"https://madie.cms.gov/Organization/123456","resource":{"resourceType":"Organization","id":"806b0255-13cb-4f2b-9412-571554dd2169","meta":{"profile":["http://hl7.org/fhir/us/qicore/StructureDefinition/qicore-organization"]},"identifier":[{"use":"temp","system":"urn:oid:2.16.840.1.113883.4.4","value":"21-3259825"}],"active":true,"type":[{"coding":[{"system":"http://terminology.hl7.org/CodeSystem/organization-type","code":"pay","display":"Payer"}]}],"name":"Blue Cross Blue Shield of Texas","telecom":[{"system":"phone","value":"(+1) 972-766-6900"}],"address":[{"use":"billing","type":"postal","line":["P.O. Box 660044"],"city":"Dallas","state":"TX","postalCode":"75266-0044","country":"USA"}]},"request":{"method":"PUT","url":"Organization/806b0255-13cb-4f2b-9412-571554dd2169"}},{"fullUrl":"https://madie.cms.gov/Practitioner/practitioner-123456","resource":{"resourceType":"Practitioner","id":"d0de37c7-9087-423e-b576-f7148871179d","identifier":[{"system":"http://hl7.org/fhir/sid/us-npi","value":"123456"}],"name":[{"family":"Evil","prefix":["Dr"]}]},"request":{"method":"PUT","url":"Practitioner/d0de37c7-9087-423e-b576-f7148871179d"}},{"fullUrl":"https://madie.cms.gov/MeasureReport/b73b56a8-40af-4503-8b7c-a38f4d4b40ac","resource":{"resourceType":"MeasureReport","id":"b73b56a8-40af-4503-8b7c-a38f4d4b40ac","meta":{"profile":["http://hl7.org/fhir/us/cqfmeasures/StructureDefinition/test-case-cqfm"]},"contained":[{"resourceType":"Parameters","id":"f18b318d-f8a5-4234-bacc-58791ee38a66-parameters","parameter":[{"name":"subject","valueString":"5109af7f-4d95-4372-8857-71d800f53100"}]}],"extension":[{"url":"http://hl7.org/fhir/us/cqfmeasures/StructureDefinition/cqfm-inputParameters","valueReference":{"reference":"#f18b318d-f8a5-4234-bacc-58791ee38a66-parameters"}},{"url":"http://hl7.org/fhir/us/cqfmeasures/StructureDefinition/cqfm-testCaseDescription","valueMarkdown":"Injectable Factor Xa and IPC  not ordered dt medical reason concurrent neuraxial anesthesia\n"}],"modifierExtension":[{"url":"http://hl7.org/fhir/us/cqfmeasures/StructureDefinition/cqfm-isTestCase","valueBoolean":true}],"status":"complete","type":"individual","measure":"https://madie.cms.gov/Measure/IntensiveCareUnitVenousThromboembolismProphylaxisFHIR","period":{"start":"2025-01-01","end":"2025-12-31"},"group":[{"population":[{"code":{"coding":[{"system":"http://terminology.hl7.org/CodeSystem/measure-population","code":"initial-population","display":"Initial Population"}]},"count":1},{"code":{"coding":[{"system":"http://terminology.hl7.org/CodeSystem/measure-population","code":"denominator","display":"Denominator"}]},"count":1},{"code":{"coding":[{"system":"http://terminology.hl7.org/CodeSystem/measure-population","code":"denominator-exclusion","display":"Denominator Exclusion"}]},"count":0},{"code":{"coding":[{"system":"http://terminology.hl7.org/CodeSystem/measure-population","code":"numerator","display":"Numerator"}]},"count":1},{"code":{"coding":[{"system":"http://terminology.hl7.org/CodeSystem/measure-population","code":"denominator-exception","display":"Denominator Exception"}]},"count":0}]}]},"request":{"method":"PUT","url":"MeasureReport/b73b56a8-40af-4503-8b7c-a38f4d4b40ac"}}]}