{"resourceType":"Bundle","id":"tests-298f3f92-5047-46fc-ad92-9f27887ffc55-bundle","type":"transaction","entry":[{"fullUrl":"https://madie.cms.gov/Patient/298f3f92-5047-46fc-ad92-9f27887ffc55","resource":{"resourceType":"Patient","id":"298f3f92-5047-46fc-ad92-9f27887ffc55","meta":{"profile":["http://hl7.org/fhir/us/qicore/StructureDefinition/qicore-patient"]},"text":{"status":"generated","div":"<div xmlns=\"http://www.w3.org/1999/xhtml\"><div class=\"hapiHeaderText\">MALDUH1DayAfterICU <b>NUMERPASS </b></div><table class=\"hapiPropertyTable\"><tbody><tr><td>Identifier</td><td>4a57e8e4a87323501c4bde2e71e8e471</td></tr><tr><td>Date of birth</td><td><span>03 March 1974</span></td></tr></tbody></table></div>"},"extension":[{"url":"http://hl7.org/fhir/us/core/StructureDefinition/us-core-race","extension":[{"url":"ombCategory","valueCoding":{"system":"urn:oid:2.16.840.1.113883.6.238","code":"1002-5","display":"American Indian or Alaska Native","userSelected":true}},{"url":"text","valueString":"American Indian or Alaska Native"}]},{"url":"http://hl7.org/fhir/us/core/StructureDefinition/us-core-ethnicity","extension":[{"url":"ombCategory","valueCoding":{"system":"urn:oid:2.16.840.1.113883.6.238","code":"2135-2","display":"Hispanic or Latino","userSelected":true}},{"url":"text","valueString":"Hispanic or Latino"}]}],"identifier":[{"type":{"coding":[{"system":"http://terminology.hl7.org/CodeSystem/v2-0203","code":"MR"}]},"system":"https://bonnie-fhir.healthit.gov/","value":"612e6eb702c62a011f2ef567"}],"active":true,"name":[{"use":"usual","family":"NUMERPass","given":["MALDUH1DayAfterICU"]}],"gender":"female","birthDate":"1974-03-03"},"request":{"method":"PUT","url":"Patient/298f3f92-5047-46fc-ad92-9f27887ffc55"}},{"fullUrl":"https://madie.cms.gov/Encounter/5ce8096db848467c29eaf0b9","resource":{"resourceType":"Encounter","id":"5ce8096db848467c29eaf0b9","meta":{"profile":["http://hl7.org/fhir/us/qicore/StructureDefinition/qicore-encounter"]},"status":"finished","class":{"system":"http://terminology.hl7.org/CodeSystem/v3-ActCode","code":"IMP","display":"inpatient encounter"},"type":[{"coding":[{"system":"http://snomed.info/sct","code":"8715000"}]}],"subject":{"reference":"Patient/298f3f92-5047-46fc-ad92-9f27887ffc55"},"period":{"start":"2025-12-01T00:00:00+00:00","end":"2025-12-31T23:59:00+00:00"},"length":{"value":30.0,"unit":"days"},"location":[{"location":{"reference":"Location/intensive-care-unit-230a"},"period":{"start":"2025-12-01T09:00:00.000+00:00","end":"2025-12-10T08:15:00.000+00:00"}}]},"request":{"method":"PUT","url":"Encounter/5ce8096db848467c29eaf0b9"}},{"fullUrl":"https://madie.cms.gov/Coverage/5fa040ed1c76ba66d9958f10","resource":{"resourceType":"Coverage","id":"5fa040ed1c76ba66d9958f10","status":"active","beneficiary":{"reference":"Patient/298f3f92-5047-46fc-ad92-9f27887ffc55"},"period":{"start":"1974-03-03T08:00:00+00:00"},"payor":[{"reference":"Organization/Org-123456"}]},"request":{"method":"PUT","url":"Coverage/5fa040ed1c76ba66d9958f10"}},{"fullUrl":"https://madie.cms.gov/MedicationAdministration/5ce8096db848467c29eaf0ba","resource":{"resourceType":"MedicationAdministration","id":"5ce8096db848467c29eaf0ba","meta":{"profile":["http://hl7.org/fhir/us/qicore/StructureDefinition/qicore-medicationadministration"]},"status":"completed","medicationCodeableConcept":{"coding":[{"system":"http://www.nlm.nih.gov/research/umls/rxnorm","code":"1361574"}]},"subject":{"reference":"Patient/298f3f92-5047-46fc-ad92-9f27887ffc55"},"effectivePeriod":{"start":"2025-12-02T23:59:00+00:00"},"dosage":{"route":{"coding":[{"system":"http://snomed.info/sct","code":"34206005","display":"Subcutaneous route"}]},"dose":{"value":20000,"unit":"UNT/ML","system":"http://unitsofmeasure.org","code":"UNT/ML"}}},"request":{"method":"PUT","url":"MedicationAdministration/5ce8096db848467c29eaf0ba"}},{"fullUrl":"https://madie.cms.gov/Location/intensive-care-unit-230a","resource":{"resourceType":"Location","id":"intensive-care-unit-230a","meta":{"profile":["http://hl7.org/fhir/us/qicore/StructureDefinition/qicore-location"]},"identifier":[{"use":"usual","system":"http://exampleoflocation.com","value":"B1-S.F2"}],"name":"Medical Surgical East, first floor","type":[{"coding":[{"system":"https://www.cdc.gov/nhsn/cdaportal/terminology/codesystem/hsloc.html","version":"2020","code":"1025-6","display":"Trauma Critical Care","userSelected":true}]}]},"request":{"method":"PUT","url":"Location/intensive-care-unit-230a"}},{"fullUrl":"https://madie.cms.gov/Organization/123456","resource":{"resourceType":"Organization","id":"Org-123456","meta":{"profile":["http://hl7.org/fhir/us/qicore/StructureDefinition/qicore-organization"]},"identifier":[{"use":"temp","system":"urn:oid:2.16.840.1.113883.4.4","value":"21-3259825"}],"active":true,"type":[{"coding":[{"system":"http://terminology.hl7.org/CodeSystem/organization-type","code":"pay","display":"Payer"}]}],"name":"Blue Cross Blue Shield of Texas","telecom":[{"system":"phone","value":"(+1) 972-766-6900"}],"address":[{"use":"billing","type":"postal","line":["P.O. Box 660044"],"city":"Dallas","state":"TX","postalCode":"75266-0044","country":"USA"}]},"request":{"method":"PUT","url":"Organization/Org-123456"}},{"fullUrl":"https://madie.cms.gov/Practitioner/practitioner-123456","resource":{"resourceType":"Practitioner","id":"practitioner-123456","identifier":[{"system":"http://hl7.org/fhir/sid/us-npi","value":"123456"}],"name":[{"family":"Evil","prefix":["Dr"]}]},"request":{"method":"PUT","url":"Practitioner/practitioner-123456"}},{"fullUrl":"https://madie.cms.gov/MeasureReport/c26e6990-cc5c-46d8-9286-58b49befae3d","resource":{"resourceType":"MeasureReport","id":"c26e6990-cc5c-46d8-9286-58b49befae3d","meta":{"profile":["http://hl7.org/fhir/us/cqfmeasures/StructureDefinition/test-case-cqfm"]},"contained":[{"resourceType":"Parameters","id":"6673b666-61ea-4896-91a4-c4e9762c9c0a-parameters","parameter":[{"name":"subject","valueString":"298f3f92-5047-46fc-ad92-9f27887ffc55"}]}],"extension":[{"url":"http://hl7.org/fhir/us/cqfmeasures/StructureDefinition/cqfm-inputParameters","valueReference":{"reference":"#6673b666-61ea-4896-91a4-c4e9762c9c0a-parameters"}},{"url":"http://hl7.org/fhir/us/cqfmeasures/StructureDefinition/cqfm-testCaseDescription","valueMarkdown":"LDUH 1 day after ICU admission, no anesthesia. \n"}],"modifierExtension":[{"url":"http://hl7.org/fhir/us/cqfmeasures/StructureDefinition/cqfm-isTestCase","valueBoolean":true}],"status":"complete","type":"individual","measure":"https://madie.cms.gov/Measure/IntensiveCareUnitVenousThromboembolismProphylaxisFHIR","period":{"start":"2025-01-01","end":"2025-12-31"},"group":[{"population":[{"code":{"coding":[{"system":"http://terminology.hl7.org/CodeSystem/measure-population","code":"initial-population","display":"Initial Population"}]},"count":1},{"code":{"coding":[{"system":"http://terminology.hl7.org/CodeSystem/measure-population","code":"denominator","display":"Denominator"}]},"count":1},{"code":{"coding":[{"system":"http://terminology.hl7.org/CodeSystem/measure-population","code":"denominator-exclusion","display":"Denominator Exclusion"}]},"count":0},{"code":{"coding":[{"system":"http://terminology.hl7.org/CodeSystem/measure-population","code":"numerator","display":"Numerator"}]},"count":1},{"code":{"coding":[{"system":"http://terminology.hl7.org/CodeSystem/measure-population","code":"denominator-exception","display":"Denominator Exception"}]},"count":0}]}],"evaluatedResource":[{"reference":"Patient/298f3f92-5047-46fc-ad92-9f27887ffc55"},{"reference":"Encounter/5ce8096db848467c29eaf0b9"},{"reference":"Coverage/5fa040ed1c76ba66d9958f10"},{"reference":"MedicationAdministration/5ce8096db848467c29eaf0ba"},{"reference":"Location/intensive-care-unit-230a"},{"reference":"Organization/Org-123456"},{"reference":"Practitioner/practitioner-123456"}]},"request":{"method":"PUT","url":"MeasureReport/c26e6990-cc5c-46d8-9286-58b49befae3d"}}]}