{"resourceType":"Bundle","id":"tests-ec88b695-15b1-4ba3-b032-b04e191b97a4-bundle","type":"transaction","entry":[{"fullUrl":"https://madie.cms.gov/Patient/ec88b695-15b1-4ba3-b032-b04e191b97a4","resource":{"resourceType":"Patient","id":"ec88b695-15b1-4ba3-b032-b04e191b97a4","meta":{"profile":["http://hl7.org/fhir/us/qicore/StructureDefinition/qicore-patient"]},"text":{"status":"generated","div":"<div xmlns=\"http://www.w3.org/1999/xhtml\"><div class=\"hapiHeaderText\">PtRefMARixDAIPC2DayAfterAnes <b>NUMERFAIL </b></div><table class=\"hapiPropertyTable\"><tbody><tr><td>Identifier</td><td>39c81b9bc72445874f3c2841a7094a3f</td></tr><tr><td>Date of birth</td><td><span>03 March 1974</span></td></tr></tbody></table></div>"},"extension":[{"url":"http://hl7.org/fhir/us/core/StructureDefinition/us-core-race","extension":[{"url":"ombCategory","valueCoding":{"system":"urn:oid:2.16.840.1.113883.6.238","code":"1002-5","display":"American Indian or Alaska Native","userSelected":true}},{"url":"text","valueString":"American Indian or Alaska Native"}]},{"url":"http://hl7.org/fhir/us/core/StructureDefinition/us-core-ethnicity","extension":[{"url":"ombCategory","valueCoding":{"system":"urn:oid:2.16.840.1.113883.6.238","code":"2135-2","display":"Hispanic or Latino","userSelected":true}},{"url":"text","valueString":"Hispanic or Latino"}]}],"identifier":[{"type":{"coding":[{"system":"http://terminology.hl7.org/CodeSystem/v2-0203","code":"MR"}]},"system":"https://bonnie-fhir.healthit.gov/","value":"612e6ee202c62a011f2eff14"}],"active":true,"name":[{"use":"usual","family":"NUMERFail","given":["PtRefMARixDAIPC2DayAfterAnes"]}],"gender":"female","birthDate":"1974-03-03"},"request":{"method":"PUT","url":"Patient/ec88b695-15b1-4ba3-b032-b04e191b97a4"}},{"fullUrl":"https://madie.cms.gov/Encounter/5ce80970b848467c29eaf293","resource":{"resourceType":"Encounter","id":"136d3ec6-4f63-43ea-9f15-a901f94f0645","meta":{"profile":["http://hl7.org/fhir/us/qicore/StructureDefinition/qicore-encounter"]},"status":"finished","class":{"system":"http://terminology.hl7.org/CodeSystem/v3-ActCode","code":"IMP","display":"inpatient encounter"},"type":[{"coding":[{"system":"http://snomed.info/sct","code":"8715000"}]}],"subject":{"reference":"Patient/ec88b695-15b1-4ba3-b032-b04e191b97a4"},"period":{"start":"2025-12-04T08:00:00+00:00","end":"2025-12-30T08:15:00+00:00"},"length":{"value":26,"unit":"days"},"location":[{"location":{"reference":"Location/intensive-care-unit-d508"},"period":{"start":"2025-12-06T08:00:00.000+00:00","end":"2025-12-12T08:15:00.000+00:00"}}]},"request":{"method":"PUT","url":"Encounter/136d3ec6-4f63-43ea-9f15-a901f94f0645"}},{"fullUrl":"https://madie.cms.gov/Coverage/5fa040f21c76ba66d9958f7c","resource":{"resourceType":"Coverage","id":"04199851-5b24-4dbe-95cc-c70bdf2f64dd","status":"active","beneficiary":{"reference":"Patient/ec88b695-15b1-4ba3-b032-b04e191b97a4"},"period":{"start":"1974-03-03T08:00:00+00:00"},"payor":[{"reference":"Organization/4b5a882f-1f43-485c-85c6-f5ad2337d5b1"}]},"request":{"method":"PUT","url":"Coverage/04199851-5b24-4dbe-95cc-c70bdf2f64dd"}},{"fullUrl":"https://madie.cms.gov/Procedure/5ce80970b848467c29eaf294","resource":{"resourceType":"Procedure","id":"0bb5d21c-5fed-47ab-b995-1138a67367c4","meta":{"profile":["http://hl7.org/fhir/us/qicore/StructureDefinition/qicore-procedurenotdone"]},"extension":[{"url":"http://hl7.org/fhir/us/qicore/StructureDefinition/qicore-recorded","valueDateTime":"2025-11-01T07:00:00+00:00"}],"status":"not-done","statusReason":{"coding":[{"system":"http://snomed.info/sct","code":"443390004","display":"Procedure contraindicated (situation)","userSelected":true}]},"code":{"coding":[{"system":"http://snomed.info/sct","code":"443448006","display":"Application of intermittent pneumatic compression device (procedure)","userSelected":true}]},"subject":{"reference":"Patient/ec88b695-15b1-4ba3-b032-b04e191b97a4"},"_performedDateTime":{"extension":[{"url":"http://hl7.org/fhir/StructureDefinition/data-absent-reason","valueCode":"not-performed"}]}},"request":{"method":"PUT","url":"Procedure/0bb5d21c-5fed-47ab-b995-1138a67367c4"}},{"fullUrl":"https://madie.cms.gov/MedicationAdministration/5ce80970b848467c29eaf295","resource":{"resourceType":"MedicationAdministration","id":"4a897373-0dc1-49f4-80cd-b19e27a4d34e","meta":{"profile":["http://hl7.org/fhir/us/qicore/StructureDefinition/qicore-mednotadministered"]},"extension":[{"url":"http://hl7.org/fhir/us/qicore/StructureDefinition/qicore-recorded","valueDateTime":"2025-12-08T07:00:00+00:00"}],"status":"not-done","statusReason":[{"coding":[{"system":"http://snomed.info/sct","code":"183932001"}]}],"medicationCodeableConcept":{"coding":[{"system":"http://www.nlm.nih.gov/research/umls/rxnorm","code":"2588062","display":"rivaroxaban 1 MG/ML Oral Suspension"}]},"subject":{"reference":"Patient/ec88b695-15b1-4ba3-b032-b04e191b97a4"},"effectivePeriod":{"start":"2025-12-08T11:30:00+00:00"}},"request":{"method":"PUT","url":"MedicationAdministration/4a897373-0dc1-49f4-80cd-b19e27a4d34e"}},{"fullUrl":"https://madie.cms.gov/Procedure/5ce80970b848467c29eaf296","resource":{"resourceType":"Procedure","id":"5afceeb2-c213-4173-8439-518d72dad69b","status":"completed","code":{"coding":[{"system":"http://www.icd10data.com/icd10pcs","code":"3E030FZ"},{"system":"http://snomed.info/sct","code":"18946005"}]},"subject":{"reference":"Patient/ec88b695-15b1-4ba3-b032-b04e191b97a4"},"performedPeriod":{"start":"2025-12-04T11:00:00+00:00","end":"2025-12-06T11:15:00+00:00"}},"request":{"method":"PUT","url":"Procedure/5afceeb2-c213-4173-8439-518d72dad69b"}},{"fullUrl":"https://madie.cms.gov/Location/intensive-care-unit-d508","resource":{"resourceType":"Location","id":"ab95f456-a363-4268-beda-73c7dbc18908","meta":{"profile":["http://hl7.org/fhir/us/qicore/StructureDefinition/qicore-location"]},"identifier":[{"use":"usual","system":"http://exampleoflocation.com","value":"B1-S.F2"}],"name":"Medical Surgical East, first floor","type":[{"coding":[{"system":"https://www.cdc.gov/nhsn/cdaportal/terminology/codesystem/hsloc.html","code":"1025-6","display":"Trauma Critical Care","userSelected":true}]}]},"request":{"method":"PUT","url":"Location/ab95f456-a363-4268-beda-73c7dbc18908"}},{"fullUrl":"https://madie.cms.gov/Organization/123456","resource":{"resourceType":"Organization","id":"4b5a882f-1f43-485c-85c6-f5ad2337d5b1","meta":{"profile":["http://hl7.org/fhir/us/qicore/StructureDefinition/qicore-organization"]},"identifier":[{"use":"temp","system":"urn:oid:2.16.840.1.113883.4.4","value":"21-3259825"}],"active":true,"type":[{"coding":[{"system":"http://terminology.hl7.org/CodeSystem/organization-type","code":"pay","display":"Payer"}]}],"name":"Blue Cross Blue Shield of Texas","telecom":[{"system":"phone","value":"(+1) 972-766-6900"}],"address":[{"use":"billing","type":"postal","line":["P.O. Box 660044"],"city":"Dallas","state":"TX","postalCode":"75266-0044","country":"USA"}]},"request":{"method":"PUT","url":"Organization/4b5a882f-1f43-485c-85c6-f5ad2337d5b1"}},{"fullUrl":"https://madie.cms.gov/Practitioner/practitioner-123456","resource":{"resourceType":"Practitioner","id":"7b13e908-3d65-40f8-aeff-34eb1ed2bde5","identifier":[{"system":"http://hl7.org/fhir/sid/us-npi","value":"123456"}],"name":[{"family":"Evil","prefix":["Dr"]}]},"request":{"method":"PUT","url":"Practitioner/7b13e908-3d65-40f8-aeff-34eb1ed2bde5"}},{"fullUrl":"https://madie.cms.gov/MeasureReport/b80ad0a2-1f4c-4fdf-95c7-41ced66592ef","resource":{"resourceType":"MeasureReport","id":"b80ad0a2-1f4c-4fdf-95c7-41ced66592ef","meta":{"profile":["http://hl7.org/fhir/us/cqfmeasures/StructureDefinition/test-case-cqfm"]},"contained":[{"resourceType":"Parameters","id":"7f30e305-87f7-47fd-badc-4f3f76fec255-parameters","parameter":[{"name":"subject","valueString":"ec88b695-15b1-4ba3-b032-b04e191b97a4"}]}],"extension":[{"url":"http://hl7.org/fhir/us/cqfmeasures/StructureDefinition/cqfm-inputParameters","valueReference":{"reference":"#7f30e305-87f7-47fd-badc-4f3f76fec255-parameters"}},{"url":"http://hl7.org/fhir/us/cqfmeasures/StructureDefinition/cqfm-testCaseDescription","valueMarkdown":"NoIPCNoRixBexPtRefusal both administered 2 Day After Anes\n"}],"modifierExtension":[{"url":"http://hl7.org/fhir/us/cqfmeasures/StructureDefinition/cqfm-isTestCase","valueBoolean":true}],"status":"complete","type":"individual","measure":"https://madie.cms.gov/Measure/IntensiveCareUnitVenousThromboembolismProphylaxisFHIR","period":{"start":"2025-01-01","end":"2025-12-31"},"group":[{"population":[{"code":{"coding":[{"system":"http://terminology.hl7.org/CodeSystem/measure-population","code":"initial-population","display":"Initial Population"}]},"count":1},{"code":{"coding":[{"system":"http://terminology.hl7.org/CodeSystem/measure-population","code":"denominator","display":"Denominator"}]},"count":1},{"code":{"coding":[{"system":"http://terminology.hl7.org/CodeSystem/measure-population","code":"denominator-exclusion","display":"Denominator Exclusion"}]},"count":0},{"code":{"coding":[{"system":"http://terminology.hl7.org/CodeSystem/measure-population","code":"numerator","display":"Numerator"}]},"count":0},{"code":{"coding":[{"system":"http://terminology.hl7.org/CodeSystem/measure-population","code":"denominator-exception","display":"Denominator Exception"}]},"count":0}]}]},"request":{"method":"PUT","url":"MeasureReport/b80ad0a2-1f4c-4fdf-95c7-41ced66592ef"}}]}