{"resourceType":"Bundle","id":"tests-afb6cd61-89e3-4b1c-b4c9-b883832ddcd5-bundle","type":"transaction","entry":[{"fullUrl":"https://madie.cms.gov/Patient/afb6cd61-89e3-4b1c-b4c9-b883832ddcd5","resource":{"resourceType":"Patient","id":"afb6cd61-89e3-4b1c-b4c9-b883832ddcd5","meta":{"profile":["http://hl7.org/fhir/us/qicore/StructureDefinition/qicore-patient"]},"text":{"status":"generated","div":"<div xmlns=\"http://www.w3.org/1999/xhtml\"><div class=\"hapiHeaderText\">CMOPerfGT1DayAfterAnesEnd <b>DENEXFAIL </b></div><table class=\"hapiPropertyTable\"><tbody><tr><td>Identifier</td><td>89fbfddc5e63c9f4a082d657ebf84aee</td></tr><tr><td>Date of birth</td><td><span>03 March 1974</span></td></tr></tbody></table></div>"},"extension":[{"url":"http://hl7.org/fhir/us/core/StructureDefinition/us-core-race","extension":[{"url":"ombCategory","valueCoding":{"system":"urn:oid:2.16.840.1.113883.6.238","code":"1002-5","display":"American Indian or Alaska Native","userSelected":true}},{"url":"text","valueString":"American Indian or Alaska Native"}]},{"url":"http://hl7.org/fhir/us/core/StructureDefinition/us-core-ethnicity","extension":[{"url":"ombCategory","valueCoding":{"system":"urn:oid:2.16.840.1.113883.6.238","code":"2135-2","display":"Hispanic or Latino","userSelected":true}},{"url":"text","valueString":"Hispanic or Latino"}]}],"identifier":[{"type":{"coding":[{"system":"http://terminology.hl7.org/CodeSystem/v2-0203","code":"MR"}]},"system":"https://bonnie-fhir.healthit.gov/","value":"612e6ec702c62a011f2ef906"}],"active":true,"name":[{"use":"usual","family":"DENEXFail","given":["CMOPerGT1DayAfterAnesEnd"]}],"gender":"female","birthDate":"1974-03-03"},"request":{"method":"PUT","url":"Patient/afb6cd61-89e3-4b1c-b4c9-b883832ddcd5"}},{"fullUrl":"https://madie.cms.gov/Encounter/5ce8096db848467c29eaf0de","resource":{"resourceType":"Encounter","id":"4ae8b235-8cd6-4497-a90c-bbb6a6f0ed23","meta":{"profile":["http://hl7.org/fhir/us/qicore/StructureDefinition/qicore-encounter"]},"status":"finished","class":{"system":"http://terminology.hl7.org/CodeSystem/v3-ActCode","code":"IMP","display":"inpatient encounter"},"type":[{"coding":[{"system":"http://snomed.info/sct","code":"8715000"}]}],"subject":{"reference":"Patient/afb6cd61-89e3-4b1c-b4c9-b883832ddcd5"},"period":{"start":"2025-12-04T08:00:00+00:00","end":"2025-12-30T08:15:00+00:00"},"length":{"value":26.0,"unit":"days"},"location":[{"location":{"reference":"Location/Location-1"},"period":{"start":"2025-12-06T08:00:00.000+00:00","end":"2025-12-12T08:15:00.000+00:00"}}]},"request":{"method":"PUT","url":"Encounter/4ae8b235-8cd6-4497-a90c-bbb6a6f0ed23"}},{"fullUrl":"https://madie.cms.gov/Procedure/5ce8096db848467c29eaf0e0","resource":{"resourceType":"Procedure","id":"91ef2456-9313-4f02-a99b-568ee4b6904c","meta":{"profile":["http://hl7.org/fhir/us/qicore/StructureDefinition/qicore-procedure"]},"extension":[{"url":"http://hl7.org/fhir/us/qicore/StructureDefinition/qicore-recorded","valueDateTime":"2012-12-08T09:35:00-04:00"}],"status":"completed","code":{"coding":[{"system":"http://snomed.info/sct","code":"133918004"}]},"subject":{"reference":"Patient/afb6cd61-89e3-4b1c-b4c9-b883832ddcd5"},"performedPeriod":{"start":"2025-12-08T11:30:00+00:00"}},"request":{"method":"PUT","url":"Procedure/91ef2456-9313-4f02-a99b-568ee4b6904c"}},{"fullUrl":"https://madie.cms.gov/Coverage/5fa040ef1c76ba66d9958f3d","resource":{"resourceType":"Coverage","id":"45337906-599e-4dd5-b544-b071975e36ea","status":"active","beneficiary":{"reference":"Patient/afb6cd61-89e3-4b1c-b4c9-b883832ddcd5"},"period":{"start":"1974-03-03T08:00:00+00:00"},"payor":[{"reference":"Organization/880a275e-1cf2-4fb9-869b-f1d2173fdc2b"}]},"request":{"method":"PUT","url":"Coverage/45337906-599e-4dd5-b544-b071975e36ea"}},{"fullUrl":"https://madie.cms.gov/Procedure/5ce8096db848467c29eaf0df","resource":{"resourceType":"Procedure","id":"cf894bed-d21a-41ad-bd39-a04f9c6e9c58","meta":{"profile":["http://hl7.org/fhir/us/qicore/StructureDefinition/qicore-procedure"]},"extension":[{"url":"http://hl7.org/fhir/us/qicore/StructureDefinition/qicore-recorded","valueDateTime":"2012-12-06T09:35:00-04:00"}],"status":"completed","code":{"coding":[{"system":"http://snomed.info/sct","code":"18946005"}]},"subject":{"reference":"Patient/afb6cd61-89e3-4b1c-b4c9-b883832ddcd5"},"performedPeriod":{"start":"2025-12-04T11:00:00+00:00","end":"2025-12-06T11:15:00+00:00"}},"request":{"method":"PUT","url":"Procedure/cf894bed-d21a-41ad-bd39-a04f9c6e9c58"}},{"fullUrl":"https://madie.cms.gov/Location/Location-1","resource":{"resourceType":"Location","id":"2357c430-1f9a-491d-8279-893eb8a3bc28","meta":{"profile":["http://hl7.org/fhir/us/qicore/StructureDefinition/qicore-location"]},"identifier":[{"use":"usual","system":"http://exampleoflocation.com","value":"B1-S.F2"}],"name":"Medical Surgical East, first floor","type":[{"coding":[{"system":"https://www.cdc.gov/nhsn/cdaportal/terminology/codesystem/hsloc.html","code":"1025-6","display":"Trauma Critical Care","userSelected":true}]}]},"request":{"method":"PUT","url":"Location/2357c430-1f9a-491d-8279-893eb8a3bc28"}},{"fullUrl":"https://madie.cms.gov/Organization/123456","resource":{"resourceType":"Organization","id":"880a275e-1cf2-4fb9-869b-f1d2173fdc2b","meta":{"profile":["http://hl7.org/fhir/us/qicore/StructureDefinition/qicore-organization"]},"identifier":[{"use":"temp","system":"urn:oid:2.16.840.1.113883.4.4","value":"21-3259825"}],"active":true,"type":[{"coding":[{"system":"http://terminology.hl7.org/CodeSystem/organization-type","code":"pay","display":"Payer"}]}],"name":"Blue Cross Blue Shield of Texas","telecom":[{"system":"phone","value":"(+1) 972-766-6900"}],"address":[{"use":"billing","type":"postal","line":["P.O. Box 660044"],"city":"Dallas","state":"TX","postalCode":"75266-0044","country":"USA"}]},"request":{"method":"PUT","url":"Organization/880a275e-1cf2-4fb9-869b-f1d2173fdc2b"}},{"fullUrl":"https://madie.cms.gov/Practitioner/practitioner-123456","resource":{"resourceType":"Practitioner","id":"d6d76c81-3039-4790-b48f-a344cfbfdd2c","identifier":[{"system":"http://hl7.org/fhir/sid/us-npi","value":"123456"}],"name":[{"family":"Evil","prefix":["Dr"]}]},"request":{"method":"PUT","url":"Practitioner/d6d76c81-3039-4790-b48f-a344cfbfdd2c"}},{"fullUrl":"https://madie.cms.gov/MeasureReport/d1421efe-238f-41af-8dfa-470ff412b661","resource":{"resourceType":"MeasureReport","id":"d1421efe-238f-41af-8dfa-470ff412b661","meta":{"profile":["http://hl7.org/fhir/us/cqfmeasures/StructureDefinition/test-case-cqfm"]},"contained":[{"resourceType":"Parameters","id":"9e1e058c-9bf7-440a-a537-a52fb4c9c3d6-parameters","parameter":[{"name":"subject","valueString":"afb6cd61-89e3-4b1c-b4c9-b883832ddcd5"}]}],"extension":[{"url":"http://hl7.org/fhir/us/cqfmeasures/StructureDefinition/cqfm-inputParameters","valueReference":{"reference":"#9e1e058c-9bf7-440a-a537-a52fb4c9c3d6-parameters"}},{"url":"http://hl7.org/fhir/us/cqfmeasures/StructureDefinition/cqfm-testCaseDescription","valueMarkdown":"comfort measures > 1 day after end of neuraxial anesthesia\n"}],"modifierExtension":[{"url":"http://hl7.org/fhir/us/cqfmeasures/StructureDefinition/cqfm-isTestCase","valueBoolean":true}],"status":"complete","type":"individual","measure":"https://madie.cms.gov/Measure/IntensiveCareUnitVenousThromboembolismProphylaxisFHIR","period":{"start":"2025-01-01","end":"2025-12-31"},"group":[{"population":[{"code":{"coding":[{"system":"http://terminology.hl7.org/CodeSystem/measure-population","code":"initial-population","display":"Initial Population"}]},"count":1},{"code":{"coding":[{"system":"http://terminology.hl7.org/CodeSystem/measure-population","code":"denominator","display":"Denominator"}]},"count":1},{"code":{"coding":[{"system":"http://terminology.hl7.org/CodeSystem/measure-population","code":"denominator-exclusion","display":"Denominator Exclusion"}]},"count":0},{"code":{"coding":[{"system":"http://terminology.hl7.org/CodeSystem/measure-population","code":"numerator","display":"Numerator"}]},"count":0},{"code":{"coding":[{"system":"http://terminology.hl7.org/CodeSystem/measure-population","code":"denominator-exception","display":"Denominator Exception"}]},"count":0}]}]},"request":{"method":"PUT","url":"MeasureReport/d1421efe-238f-41af-8dfa-470ff412b661"}}]}