{"resourceType":"Bundle","id":"tests-04f44995-82bc-4579-b721-df49ac132735-bundle","type":"transaction","entry":[{"fullUrl":"https://madie.cms.gov/Patient/04f44995-82bc-4579-b721-df49ac132735","resource":{"resourceType":"Patient","id":"04f44995-82bc-4579-b721-df49ac132735","meta":{"profile":["http://hl7.org/fhir/us/qicore/StructureDefinition/qicore-patient"]},"text":{"status":"generated","div":"<div xmlns=\"http://www.w3.org/1999/xhtml\"><div class=\"hapiHeaderText\">ICUEnd1MinB4Enc <b>DENOMFAIL </b></div><table class=\"hapiPropertyTable\"><tbody><tr><td>Identifier</td><td>009b2b3795c87569355f211b9e8d5ef5</td></tr><tr><td>Date of birth</td><td><span>03 March 1974</span></td></tr></tbody></table></div>"},"extension":[{"url":"http://hl7.org/fhir/us/core/StructureDefinition/us-core-race","extension":[{"url":"ombCategory","valueCoding":{"system":"urn:oid:2.16.840.1.113883.6.238","code":"1002-5","display":"American Indian or Alaska Native","userSelected":true}},{"url":"text","valueString":"American Indian or Alaska Native"}]},{"url":"http://hl7.org/fhir/us/core/StructureDefinition/us-core-ethnicity","extension":[{"url":"ombCategory","valueCoding":{"system":"urn:oid:2.16.840.1.113883.6.238","code":"2186-5","display":"Not Hispanic or Latino","userSelected":true}},{"url":"text","valueString":"Not Hispanic or Latino"}]}],"identifier":[{"type":{"coding":[{"system":"http://terminology.hl7.org/CodeSystem/v2-0203","code":"MR"}]},"system":"https://bonnie-fhir.healthit.gov/","value":"612e6f1b02c62a011f2f0ba0"}],"active":true,"name":[{"use":"usual","family":"DENOMFail","given":["ICUEnd1MinB4Enc"]}],"gender":"female","birthDate":"1974-03-03"},"request":{"method":"PUT","url":"Patient/04f44995-82bc-4579-b721-df49ac132735"}},{"fullUrl":"https://madie.cms.gov/Encounter/5ce8096eb848467c29eaf162","resource":{"resourceType":"Encounter","id":"5ce8096eb848467c29eaf162","meta":{"profile":["http://hl7.org/fhir/us/qicore/StructureDefinition/qicore-encounter"]},"status":"finished","class":{"system":"http://terminology.hl7.org/CodeSystem/v3-ActCode","code":"IMP","display":"inpatient encounter"},"type":[{"coding":[{"system":"http://snomed.info/sct","code":"8715000"}]}],"subject":{"reference":"Patient/04f44995-82bc-4579-b721-df49ac132735"},"period":{"start":"2025-12-01T01:05:00+00:00","end":"2025-12-31T23:59:00+00:00"},"length":{"value":30.0,"unit":"days"},"location":[{"location":{"reference":"Location/intensive-care-unit-108a"},"period":{"start":"2025-11-30T08:00:00.000+00:00","end":"2025-12-01T01:04:00.000+00:00"}}]},"request":{"method":"PUT","url":"Encounter/5ce8096eb848467c29eaf162"}},{"fullUrl":"https://madie.cms.gov/Location/intensive-care-unit-c76a","resource":{"resourceType":"Location","id":"intensive-care-unit-c76a","meta":{"profile":["http://hl7.org/fhir/us/qicore/StructureDefinition/qicore-location"]},"identifier":[{"use":"usual","system":"http://exampleoflocation.com","value":"B1-S.F2"}],"name":"Medical Surgical East, first floor","type":[{"coding":[{"system":"https://www.cdc.gov/nhsn/cdaportal/terminology/codesystem/hsloc.html","code":"1025-6","display":"Trauma Critical Care","userSelected":true}]}]},"request":{"method":"PUT","url":"Location/intensive-care-unit-c76a"}},{"fullUrl":"https://madie.cms.gov/Coverage/5fa040fd1c76ba66d9959045","resource":{"resourceType":"Coverage","id":"5fa040fd1c76ba66d9959045","status":"active","beneficiary":{"reference":"Patient/04f44995-82bc-4579-b721-df49ac132735"},"period":{"start":"1974-03-03T08:00:00+00:00"},"payor":[{"reference":"Organization/Org-123456"}]},"request":{"method":"PUT","url":"Coverage/5fa040fd1c76ba66d9959045"}},{"fullUrl":"https://madie.cms.gov/Organization/123456","resource":{"resourceType":"Organization","id":"Org-123456","meta":{"profile":["http://hl7.org/fhir/us/qicore/StructureDefinition/qicore-organization"]},"identifier":[{"use":"temp","system":"urn:oid:2.16.840.1.113883.4.4","value":"21-3259825"}],"active":true,"type":[{"coding":[{"system":"http://terminology.hl7.org/CodeSystem/organization-type","code":"pay","display":"Payer"}]}],"name":"Blue Cross Blue Shield of Texas","telecom":[{"system":"phone","value":"(+1) 972-766-6900"}],"address":[{"use":"billing","type":"postal","line":["P.O. Box 660044"],"city":"Dallas","state":"TX","postalCode":"75266-0044","country":"USA"}]},"request":{"method":"PUT","url":"Organization/Org-123456"}},{"fullUrl":"https://madie.cms.gov/Practitioner/practitioner-123456","resource":{"resourceType":"Practitioner","id":"practitioner-123456","identifier":[{"system":"http://hl7.org/fhir/sid/us-npi","value":"123456"}],"name":[{"family":"Evil","prefix":["Dr"]}]},"request":{"method":"PUT","url":"Practitioner/practitioner-123456"}},{"fullUrl":"https://madie.cms.gov/MeasureReport/a63c14a0-d21f-4e87-9f81-1783197f5110","resource":{"resourceType":"MeasureReport","id":"a63c14a0-d21f-4e87-9f81-1783197f5110","meta":{"profile":["http://hl7.org/fhir/us/cqfmeasures/StructureDefinition/test-case-cqfm"]},"contained":[{"resourceType":"Parameters","id":"2445ae29-88f6-4878-b3eb-dfc78f97ec16-parameters","parameter":[{"name":"subject","valueString":"04f44995-82bc-4579-b721-df49ac132735"}]}],"extension":[{"url":"http://hl7.org/fhir/us/cqfmeasures/StructureDefinition/cqfm-inputParameters","valueReference":{"reference":"#2445ae29-88f6-4878-b3eb-dfc78f97ec16-parameters"}},{"url":"http://hl7.org/fhir/us/cqfmeasures/StructureDefinition/cqfm-testCaseDescription","valueMarkdown":"ICU.stop 1 min prior to Inp.start\n"}],"modifierExtension":[{"url":"http://hl7.org/fhir/us/cqfmeasures/StructureDefinition/cqfm-isTestCase","valueBoolean":true}],"status":"complete","type":"individual","measure":"https://madie.cms.gov/Measure/IntensiveCareUnitVenousThromboembolismProphylaxisFHIR","period":{"start":"2025-01-01","end":"2025-12-31"},"group":[{"population":[{"code":{"coding":[{"system":"http://terminology.hl7.org/CodeSystem/measure-population","code":"initial-population","display":"Initial Population"}]},"count":1},{"code":{"coding":[{"system":"http://terminology.hl7.org/CodeSystem/measure-population","code":"denominator","display":"Denominator"}]},"count":0},{"code":{"coding":[{"system":"http://terminology.hl7.org/CodeSystem/measure-population","code":"denominator-exclusion","display":"Denominator Exclusion"}]},"count":0},{"code":{"coding":[{"system":"http://terminology.hl7.org/CodeSystem/measure-population","code":"numerator","display":"Numerator"}]},"count":0},{"code":{"coding":[{"system":"http://terminology.hl7.org/CodeSystem/measure-population","code":"denominator-exception","display":"Denominator Exception"}]},"count":0}]}],"evaluatedResource":[{"reference":"Patient/04f44995-82bc-4579-b721-df49ac132735"},{"reference":"Encounter/5ce8096eb848467c29eaf162"},{"reference":"Location/intensive-care-unit-c76a"},{"reference":"Coverage/5fa040fd1c76ba66d9959045"},{"reference":"Organization/Org-123456"},{"reference":"Practitioner/practitioner-123456"}]},"request":{"method":"PUT","url":"MeasureReport/a63c14a0-d21f-4e87-9f81-1783197f5110"}}]}