{"resourceType":"Bundle","id":"tests-f59dc89c-0125-4f26-8442-6d0eb8c3409a-bundle","type":"transaction","entry":[{"fullUrl":"https://madie.cms.gov/Patient/f59dc89c-0125-4f26-8442-6d0eb8c3409a","resource":{"resourceType":"Patient","id":"f59dc89c-0125-4f26-8442-6d0eb8c3409a","meta":{"profile":["http://hl7.org/fhir/us/qicore/StructureDefinition/qicore-patient"]},"text":{"status":"generated","div":"<div xmlns=\"http://www.w3.org/1999/xhtml\"><div class=\"hapiHeaderText\">IntraCranialNotPrin <b>DENEXFAIL </b></div><table class=\"hapiPropertyTable\"><tbody><tr><td>Identifier</td><td>fd8dd0654dd3cfdf3e785f740e343dc5</td></tr><tr><td>Date of birth</td><td><span>03 March 1974</span></td></tr></tbody></table></div>"},"extension":[{"url":"http://hl7.org/fhir/us/core/StructureDefinition/us-core-race","extension":[{"url":"ombCategory","valueCoding":{"system":"urn:oid:2.16.840.1.113883.6.238","code":"1002-5","display":"American Indian or Alaska Native","userSelected":true}},{"url":"text","valueString":"American Indian or Alaska Native"}]},{"url":"http://hl7.org/fhir/us/core/StructureDefinition/us-core-ethnicity","extension":[{"url":"ombCategory","valueCoding":{"system":"urn:oid:2.16.840.1.113883.6.238","code":"2135-2","display":"Hispanic or Latino","userSelected":true}},{"url":"text","valueString":"Hispanic or Latino"}]}],"identifier":[{"type":{"coding":[{"system":"http://terminology.hl7.org/CodeSystem/v2-0203","code":"MR"}]},"system":"https://bonnie-fhir.healthit.gov/","value":"612e6e9202c62a011f2eee31"}],"active":true,"name":[{"use":"usual","family":"DENEXFail","given":["IntraCranialNotPrin"]}],"gender":"female","birthDate":"1974-03-03"},"request":{"method":"PUT","url":"Patient/f59dc89c-0125-4f26-8442-6d0eb8c3409a"}},{"fullUrl":"https://madie.cms.gov/Encounter/5ce8096eb848467c29eaf108","resource":{"resourceType":"Encounter","id":"5bcf1c54-5666-445d-a37d-650cd5e9ed9a","meta":{"profile":["http://hl7.org/fhir/us/qicore/StructureDefinition/qicore-encounter"]},"status":"finished","class":{"system":"http://terminology.hl7.org/CodeSystem/v3-ActCode","code":"IMP","display":"inpatient encounter"},"type":[{"coding":[{"system":"http://snomed.info/sct","code":"8715000"}]}],"subject":{"reference":"Patient/f59dc89c-0125-4f26-8442-6d0eb8c3409a"},"period":{"start":"2025-12-04T08:00:00+00:00","end":"2025-12-30T08:15:00+00:00"},"length":{"value":26.0,"unit":"days"},"location":[{"location":{"reference":"Location/intensive-care-unit-bbce"},"period":{"start":"2025-12-06T08:00:00.000+00:00","end":"2025-12-08T08:15:00.000+00:00"}}]},"request":{"method":"PUT","url":"Encounter/5bcf1c54-5666-445d-a37d-650cd5e9ed9a"}},{"fullUrl":"https://madie.cms.gov/Coverage/5fa040f41c76ba66d9958f91","resource":{"resourceType":"Coverage","id":"d972050c-f11d-42e7-82da-193effa5c1b7","status":"active","beneficiary":{"reference":"Patient/f59dc89c-0125-4f26-8442-6d0eb8c3409a"},"period":{"start":"1974-03-03T08:00:00+00:00"},"payor":[{"reference":"Organization/80573fa1-cf83-4e9a-8f21-86a018689678"}]},"request":{"method":"PUT","url":"Coverage/d972050c-f11d-42e7-82da-193effa5c1b7"}},{"fullUrl":"https://madie.cms.gov/Procedure/60380bdb5e5bfb0000d54a05","resource":{"resourceType":"Procedure","id":"1bb0a4c2-2830-467d-9798-c45dc1e4820d","meta":{"profile":["http://hl7.org/fhir/us/qicore/StructureDefinition/qicore-procedure"]},"extension":[{"url":"http://hl7.org/fhir/us/qicore/StructureDefinition/qicore-recorded","valueDateTime":"2012-12-06T09:35:00-04:00"}],"status":"completed","code":{"coding":[{"system":"http://www.cms.gov/Medicare/Coding/ICD10","code":"00500ZZ"}]},"subject":{"reference":"Patient/f59dc89c-0125-4f26-8442-6d0eb8c3409a"},"performedPeriod":{"start":"2025-12-06T08:15:00+00:00","end":"2025-12-06T23:15:00+00:00"}},"request":{"method":"PUT","url":"Procedure/1bb0a4c2-2830-467d-9798-c45dc1e4820d"}},{"fullUrl":"https://madie.cms.gov/Location/intensive-care-unit-bbce","resource":{"resourceType":"Location","id":"53e8273b-a3b2-4fbe-9c3a-b3ca403a8259","meta":{"profile":["http://hl7.org/fhir/us/qicore/StructureDefinition/qicore-location"]},"identifier":[{"use":"usual","system":"http://exampleoflocation.com","value":"B1-S.F2"}],"name":"Medical Surgical East, first floor","type":[{"coding":[{"system":"https://www.cdc.gov/nhsn/cdaportal/terminology/codesystem/hsloc.html","code":"1025-6","display":"Trauma Critical Care","userSelected":true}]}]},"request":{"method":"PUT","url":"Location/53e8273b-a3b2-4fbe-9c3a-b3ca403a8259"}},{"fullUrl":"https://madie.cms.gov/Organization/123456","resource":{"resourceType":"Organization","id":"80573fa1-cf83-4e9a-8f21-86a018689678","meta":{"profile":["http://hl7.org/fhir/us/qicore/StructureDefinition/qicore-organization"]},"identifier":[{"use":"temp","system":"urn:oid:2.16.840.1.113883.4.4","value":"21-3259825"}],"active":true,"type":[{"coding":[{"system":"http://terminology.hl7.org/CodeSystem/organization-type","code":"pay","display":"Payer"}]}],"name":"Blue Cross Blue Shield of Texas","telecom":[{"system":"phone","value":"(+1) 972-766-6900"}],"address":[{"use":"billing","type":"postal","line":["P.O. Box 660044"],"city":"Dallas","state":"TX","postalCode":"75266-0044","country":"USA"}]},"request":{"method":"PUT","url":"Organization/80573fa1-cf83-4e9a-8f21-86a018689678"}},{"fullUrl":"https://madie.cms.gov/Practitioner/practitioner-123456","resource":{"resourceType":"Practitioner","id":"8112c9a0-ac3d-43d0-8d0f-c6030dc6f29b","identifier":[{"system":"http://hl7.org/fhir/sid/us-npi","value":"123456"}],"name":[{"family":"Evil","prefix":["Dr"]}]},"request":{"method":"PUT","url":"Practitioner/8112c9a0-ac3d-43d0-8d0f-c6030dc6f29b"}},{"fullUrl":"https://madie.cms.gov/MeasureReport/316ec0ba-edf4-4420-94e0-ca6b0bdc8102","resource":{"resourceType":"MeasureReport","id":"316ec0ba-edf4-4420-94e0-ca6b0bdc8102","meta":{"profile":["http://hl7.org/fhir/us/cqfmeasures/StructureDefinition/test-case-cqfm"]},"contained":[{"resourceType":"Parameters","id":"c37e7e5c-3b5a-443f-9187-ac1e123fdf50-parameters","parameter":[{"name":"subject","valueString":"f59dc89c-0125-4f26-8442-6d0eb8c3409a"}]}],"extension":[{"url":"http://hl7.org/fhir/us/cqfmeasures/StructureDefinition/cqfm-inputParameters","valueReference":{"reference":"#c37e7e5c-3b5a-443f-9187-ac1e123fdf50-parameters"}},{"url":"http://hl7.org/fhir/us/cqfmeasures/StructureDefinition/cqfm-testCaseDescription","valueMarkdown":"intracranial neurosurgery starts not principal \n"}],"modifierExtension":[{"url":"http://hl7.org/fhir/us/cqfmeasures/StructureDefinition/cqfm-isTestCase","valueBoolean":true}],"status":"complete","type":"individual","measure":"https://madie.cms.gov/Measure/IntensiveCareUnitVenousThromboembolismProphylaxisFHIR","period":{"start":"2025-01-01","end":"2025-12-31"},"group":[{"population":[{"code":{"coding":[{"system":"http://terminology.hl7.org/CodeSystem/measure-population","code":"initial-population","display":"Initial Population"}]},"count":1},{"code":{"coding":[{"system":"http://terminology.hl7.org/CodeSystem/measure-population","code":"denominator","display":"Denominator"}]},"count":1},{"code":{"coding":[{"system":"http://terminology.hl7.org/CodeSystem/measure-population","code":"denominator-exclusion","display":"Denominator Exclusion"}]},"count":0},{"code":{"coding":[{"system":"http://terminology.hl7.org/CodeSystem/measure-population","code":"numerator","display":"Numerator"}]},"count":0},{"code":{"coding":[{"system":"http://terminology.hl7.org/CodeSystem/measure-population","code":"denominator-exception","display":"Denominator Exception"}]},"count":0}]}]},"request":{"method":"PUT","url":"MeasureReport/316ec0ba-edf4-4420-94e0-ca6b0bdc8102"}}]}