{
  "resourceType": "Bundle",
  "id": "63487c300968f801225401bc",
  "type": "transaction",
  "entry": [ {
    "fullUrl": "https://madie.cms.gov/Patient/97e8802a-f6a7-4359-a0ff-ce597741ca0f",
    "resource": {
      "resourceType": "Patient",
      "id": "97e8802a-f6a7-4359-a0ff-ce597741ca0f",
      "meta": {
        "profile": [ "http://hl7.org/fhir/us/qicore/StructureDefinition/qicore-patient" ]
      },
      "text": {
        "status": "generated",
        "div": "<div xmlns=\"http://www.w3.org/1999/xhtml\"><div class=\"hapiHeaderText\">AssessPreTermLastMissingResult <b>DENPASS </b></div><table class=\"hapiPropertyTable\"><tbody><tr><td>Identifier</td><td>68ae6e24f0fface97c058e998841dc5fd1e621f11f5d5bc2aeef1a3a248ebc14</td></tr><tr><td>Date of birth</td><td><span>14 February 1985</span></td></tr></tbody></table></div>"
      },
      "extension": [ {
        "url": "http://hl7.org/fhir/us/core/StructureDefinition/us-core-race",
        "extension": [ {
          "url": "ombCategory",
          "valueCoding": {
            "system": "urn:oid:2.16.840.1.113883.6.238",
            "code": "1002-5",
            "display": "American Indian or Alaska Native",
            "userSelected": true
          }
        }, {
          "url": "text",
          "valueString": "American Indian or Alaska Native"
        } ]
      }, {
        "url": "http://hl7.org/fhir/us/core/StructureDefinition/us-core-ethnicity",
        "extension": [ {
          "url": "ombCategory",
          "valueCoding": {
            "system": "urn:oid:2.16.840.1.113883.6.238",
            "code": "2135-2",
            "display": "Hispanic or Latino",
            "userSelected": true
          }
        }, {
          "url": "text",
          "valueString": "Hispanic or Latino"
        } ]
      } ],
      "identifier": [ {
        "type": {
          "coding": [ {
            "system": "http://terminology.hl7.org/CodeSystem/v2-0203",
            "code": "MR"
          } ]
        },
        "system": "https://bonnie-fhir.healthit.gov/",
        "value": "63487c300968f801225401bc"
      } ],
      "active": true,
      "name": [ {
        "use": "usual",
        "family": "DENPass",
        "given": [ "AssessPreTermLastMissingResult" ]
      } ],
      "gender": "female",
      "birthDate": "1997-02-14"
    },
    "request": {
      "method": "POST",
      "url": "Patient/97e8802a-f6a7-4359-a0ff-ce597741ca0f"
    }
  }, {
    "fullUrl": "https://madie.cms.gov/Observation/5d014eb2b848460872380652",
    "resource": {
      "resourceType": "Observation",
      "id": "5d014eb2b848460872380652",
      "meta": {
        "profile": [ "http://hl7.org/fhir/us/qicore/StructureDefinition/qicore-observation" ]
      },
      "status": "final",
      "category": [ {
        "coding": [ {
          "system": "http://terminology.hl7.org/CodeSystem/observation-category",
          "code": "exam",
          "display": "exam",
          "userSelected": true
        } ]
      } ],
      "code": {
        "coding": [ {
          "system": "http://loinc.org",
          "code": "11639-2"
        } ]
      },
      "subject": {
        "reference": "Patient/97e8802a-f6a7-4359-a0ff-ce597741ca0f"
      },
      "effectiveDateTime": "2024-09-19T09:00:00.000+00:00",
      "valueInteger": 0
    },
    "request": {
      "method": "POST",
      "url": "Observation/5d014eb2b848460872380652"
    }
  }, {
    "fullUrl": "https://madie.cms.gov/Observation/5d014eb2b848460872380654",
    "resource": {
      "resourceType": "Observation",
      "id": "5d014eb2b848460872380654",
      "meta": {
        "profile": [ "http://hl7.org/fhir/us/qicore/StructureDefinition/qicore-observation" ]
      },
      "status": "final",
      "category": [ {
        "coding": [ {
          "system": "http://terminology.hl7.org/CodeSystem/observation-category",
          "code": "exam",
          "display": "exam",
          "userSelected": true
        } ]
      } ],
      "code": {
        "coding": [ {
          "system": "http://loinc.org",
          "code": "11637-6"
        } ]
      },
      "subject": {
        "reference": "Patient/97e8802a-f6a7-4359-a0ff-ce597741ca0f"
      },
      "effectiveDateTime": "2025-06-08T08:00:00.000+00:00",
      "valueInteger": 0
    },
    "request": {
      "method": "POST",
      "url": "Observation/5d014eb2b848460872380654"
    }
  }, {
    "fullUrl": "https://madie.cms.gov/Observation/5d014eb2b848460872380656",
    "resource": {
      "resourceType": "Observation",
      "id": "5d014eb2b848460872380656",
      "meta": {
        "profile": [ "http://hl7.org/fhir/us/qicore/StructureDefinition/qicore-observation" ]
      },
      "status": "final",
      "category": [ {
        "coding": [ {
          "system": "http://terminology.hl7.org/CodeSystem/observation-category",
          "code": "exam",
          "display": "exam",
          "userSelected": true
        } ]
      } ],
      "code": {
        "coding": [ {
          "system": "http://loinc.org",
          "code": "11884-4"
        } ]
      },
      "subject": {
        "reference": "Patient/97e8802a-f6a7-4359-a0ff-ce597741ca0f"
      },
      "effectiveDateTime": "2025-06-08T20:00:00.000+00:00",
      "valueQuantity": {
        "value": 37.0,
        "system": "http://unitsofmeasure.org",
        "code": "weeks"
      }
    },
    "request": {
      "method": "POST",
      "url": "Observation/5d014eb2b848460872380656"
    }
  }, {
    "fullUrl": "https://madie.cms.gov/Observation/5e692f8b7ffec7000031dd09",
    "resource": {
      "resourceType": "Observation",
      "id": "5e692f8b7ffec7000031dd09",
      "meta": {
        "profile": [ "http://hl7.org/fhir/us/qicore/StructureDefinition/qicore-observation" ]
      },
      "status": "final",
      "category": [ {
        "coding": [ {
          "system": "http://terminology.hl7.org/CodeSystem/observation-category",
          "code": "exam",
          "display": "exam",
          "userSelected": true
        } ]
      } ],
      "code": {
        "coding": [ {
          "system": "http://loinc.org",
          "code": "93857-1"
        } ]
      },
      "subject": {
        "reference": "Patient/97e8802a-f6a7-4359-a0ff-ce597741ca0f"
      },
      "effectiveDateTime": "2025-06-08T20:00:00.000+00:00",
      "valueDateTime": "2025-06-08T20:00:00+00:00"
    },
    "request": {
      "method": "POST",
      "url": "Observation/5e692f8b7ffec7000031dd09"
    }
  }, {
    "fullUrl": "https://madie.cms.gov/Observation/5e95bbee44339f0000e68c60",
    "resource": {
      "resourceType": "Observation",
      "id": "5e95bbee44339f0000e68c60",
      "meta": {
        "profile": [ "http://hl7.org/fhir/us/qicore/StructureDefinition/qicore-observation" ]
      },
      "status": "final",
      "category": [ {
        "coding": [ {
          "system": "http://terminology.hl7.org/CodeSystem/observation-category",
          "code": "exam",
          "display": "exam",
          "userSelected": true
        } ]
      } ],
      "code": {
        "coding": [ {
          "system": "http://loinc.org",
          "code": "11637-6"
        } ]
      },
      "subject": {
        "reference": "Patient/97e8802a-f6a7-4359-a0ff-ce597741ca0f"
      }
    },
    "request": {
      "method": "POST",
      "url": "Observation/5e95bbee44339f0000e68c60"
    }
  }, {
    "fullUrl": "https://madie.cms.gov/Encounter/5d014eb2b848460872380650",
    "resource": {
      "resourceType": "Encounter",
      "id": "5d014eb2b848460872380650",
      "meta": {
        "profile": [ "http://hl7.org/fhir/us/qicore/StructureDefinition/qicore-encounter" ]
      },
      "status": "finished",
      "class": {
        "system": "http://terminology.hl7.org/CodeSystem/v3-ActCode",
        "code": "IMP",
        "display": "inpatient encounter"
      },
      "type": [ {
        "coding": [ {
          "system": "http://snomed.info/sct",
          "code": "8715000"
        } ]
      } ],
      "subject": {
        "reference": "Patient/97e8802a-f6a7-4359-a0ff-ce597741ca0f"
      },
      "period": {
        "start": "2025-06-08T08:00:00.000Z",
        "end": "2025-06-10T08:15:00.000Z"
      },
      "length": {
        "value": 2.0,
        "unit": "days"
      },
      "diagnosis": [ {
        "condition": {
          "reference": "Condition/delivery-of-singleton-f83c"
        },
        "use": {
          "coding": [ {
            "system": "http://snomed.info/sct",
            "code": "169826009",
            "display": "Delivery of Singleton"
          } ]
        }
      }, {
        "condition": {
          "reference": "Condition/delivery-of-singleton-947d"
        }
      } ]
    },
    "request": {
      "method": "POST",
      "url": "Encounter/5d014eb2b848460872380650"
    }
  }, {
    "fullUrl": "https://madie.cms.gov/Coverage/5f5f9e541c76ba674bb033d6",
    "resource": {
      "resourceType": "Coverage",
      "id": "5f5f9e541c76ba674bb033d6",
      "status": "active",
      "beneficiary": {
        "reference": "Patient/97e8802a-f6a7-4359-a0ff-ce597741ca0f"
      },
      "period": {
        "start": "1985-02-14T08:00:00.000Z"
      },
      "payor": [ {
        "reference": "Organization/123456"
      } ]
    },
    "request": {
      "method": "POST",
      "url": "Coverage/5f5f9e541c76ba674bb033d6"
    }
  }, {
    "fullUrl": "https://madie.cms.gov/Procedure/5d014eb2b848460872380651",
    "resource": {
      "resourceType": "Procedure",
      "id": "5d014eb2b848460872380651",
      "meta": {
        "profile": [ "http://hl7.org/fhir/us/qicore/StructureDefinition/qicore-procedure" ]
      },
      "extension": [ {
        "url": "http://hl7.org/fhir/us/qicore/StructureDefinition/qicore-recorded",
        "valueDateTime": "2013-04-05T09:35:00-04:00"
      } ],
      "status": "completed",
      "code": {
        "coding": [ {
          "system": "http://www.cms.gov/Medicare/Coding/ICD10",
          "code": "10D00Z0"
        }, {
          "system": "http://snomed.info/sct",
          "code": "4504004"
        }, {
          "system": "http://www.icd10data.com/icd10pcs",
          "code": "10D00Z1",
          "userSelected": true
        } ]
      },
      "subject": {
        "reference": "Patient/97e8802a-f6a7-4359-a0ff-ce597741ca0f"
      },
      "performedPeriod": {
        "start": "2025-06-08T20:00:00.000Z",
        "end": "2025-06-08T20:15:00.000Z"
      }
    },
    "request": {
      "method": "POST",
      "url": "Procedure/5d014eb2b848460872380651"
    }
  }, {
    "fullUrl": "https://madie.cms.gov/Condition/delivery-of-singleton-947d",
    "resource": {
      "resourceType": "Condition",
      "id": "delivery-of-singleton-947d",
      "meta": {
        "profile": [ "http://hl7.org/fhir/us/qicore/StructureDefinition/qicore-condition" ]
      },
      "category": [ {
        "coding": [ {
          "system": "http://terminology.hl7.org/CodeSystem/condition-category",
          "code": "encounter-diagnosis",
          "display": "Encounter Diagnosis"
        } ]
      } ],
      "code": {
        "coding": [ {
          "system": "http://snomed.info/sct",
          "version": "2022-09",
          "code": "169826009",
          "display": "Single live birth (finding)",
          "userSelected": true
        } ]
      },
      "subject": {
        "reference": "Patient/97e8802a-f6a7-4359-a0ff-ce597741ca0f"
      },
      "recordedDate": "2025-10-20T08:00:00.000+00:00"
    },
    "request": {
      "method": "POST",
      "url": "Condition/delivery-of-singleton-947d"
    }
  }, {
    "fullUrl": "https://madie.cms.gov/Organization/123456",
    "resource": {
      "resourceType": "Organization",
      "id": "123456",
      "meta": {
        "profile": [ "http://hl7.org/fhir/us/qicore/StructureDefinition/qicore-organization" ]
      },
      "identifier": [ {
        "use": "temp",
        "system": "urn:oid:2.16.840.1.113883.4.4",
        "value": "21-3259825"
      } ],
      "active": true,
      "type": [ {
        "coding": [ {
          "system": "http://terminology.hl7.org/CodeSystem/organization-type",
          "code": "pay",
          "display": "Payer"
        } ]
      } ],
      "name": "Blue Cross Blue Shield of Texas",
      "telecom": [ {
        "system": "phone",
        "value": "(+1) 972-766-6900"
      } ],
      "address": [ {
        "use": "billing",
        "type": "postal",
        "line": [ "P.O. Box 660044" ],
        "city": "Dallas",
        "state": "TX",
        "postalCode": "75266-0044",
        "country": "USA"
      } ]
    },
    "request": {
      "method": "POST",
      "url": "Organization/123456"
    }
  }, {
    "fullUrl": "https://madie.cms.gov/Practitioner/practitioner-123456",
    "resource": {
      "resourceType": "Practitioner",
      "id": "practitioner-123456",
      "identifier": [ {
        "system": "http://hl7.org/fhir/sid/us-npi",
        "value": "123456"
      } ],
      "name": [ {
        "family": "Evil",
        "prefix": [ "Dr" ]
      } ]
    },
    "request": {
      "method": "POST",
      "url": "Practitioner/practitioner-123456"
    }
  }, {
    "fullUrl": "https://madie.cms.gov/MeasureReport/7f7d12f4-1b47-4025-b4a8-7518547590f4",
    "resource": {
      "resourceType": "MeasureReport",
      "id": "7f7d12f4-1b47-4025-b4a8-7518547590f4",
      "meta": {
        "profile": [ "http://hl7.org/fhir/us/cqfmeasures/StructureDefinition/test-case-cqfm" ]
      },
      "contained": [ {
        "resourceType": "Parameters",
        "id": "591c0724-4ade-485d-8d9a-3ebc635342a6-parameters",
        "parameter": [ {
          "name": "subject",
          "valueString": "97e8802a-f6a7-4359-a0ff-ce597741ca0f"
        } ]
      } ],
      "extension": [ {
        "url": "http://hl7.org/fhir/us/cqfmeasures/StructureDefinition/cqfm-inputParameters",
        "valueReference": {
          "reference": "#591c0724-4ade-485d-8d9a-3ebc635342a6-parameters"
        }
      }, {
        "url": "http://hl7.org/fhir/us/cqfmeasures/StructureDefinition/cqfm-testCaseDescription",
        "valueMarkdown": "\"Two Preterm Births, first=0 but last is missing result, relevant date/time before Asse delivery datetime\nTerm Newborn=0, authored < 42weeks prior to Asse delivery\"\n"
      } ],
      "modifierExtension": [ {
        "url": "http://hl7.org/fhir/us/cqfmeasures/StructureDefinition/cqfm-isTestCase",
        "valueBoolean": true
      } ],
      "status": "complete",
      "type": "individual",
      "measure": "https://madie.cms.gov/Measure/CesareanBirthFHIR",
      "period": {
        "start": "2025-01-01",
        "end": "2025-12-31"
      },
      "group": [ {
        "population": [ {
          "code": {
            "coding": [ {
              "system": "http://terminology.hl7.org/CodeSystem/measure-population",
              "code": "initial-population",
              "display": "Initial Population"
            } ]
          },
          "count": 1
        }, {
          "code": {
            "coding": [ {
              "system": "http://terminology.hl7.org/CodeSystem/measure-population",
              "code": "denominator",
              "display": "Denominator"
            } ]
          },
          "count": 1
        }, {
          "code": {
            "coding": [ {
              "system": "http://terminology.hl7.org/CodeSystem/measure-population",
              "code": "denominator-exclusion",
              "display": "Denominator Exclusion"
            } ]
          },
          "count": 0
        }, {
          "code": {
            "coding": [ {
              "system": "http://terminology.hl7.org/CodeSystem/measure-population",
              "code": "numerator",
              "display": "Numerator"
            } ]
          },
          "count": 1
        } ]
      } ],
      "evaluatedResource": [ {
        "reference": "https://madie.cms.gov/Patient/97e8802a-f6a7-4359-a0ff-ce597741ca0f"
      }, {
        "reference": "https://madie.cms.gov/Observation/5d014eb2b848460872380652"
      }, {
        "reference": "https://madie.cms.gov/Observation/5d014eb2b848460872380654"
      }, {
        "reference": "https://madie.cms.gov/Observation/5d014eb2b848460872380656"
      }, {
        "reference": "https://madie.cms.gov/Observation/5e692f8b7ffec7000031dd09"
      }, {
        "reference": "https://madie.cms.gov/Observation/5e95bbee44339f0000e68c60"
      }, {
        "reference": "https://madie.cms.gov/Encounter/5d014eb2b848460872380650"
      }, {
        "reference": "https://madie.cms.gov/Coverage/5f5f9e541c76ba674bb033d6"
      }, {
        "reference": "https://madie.cms.gov/Procedure/5d014eb2b848460872380651"
      }, {
        "reference": "https://madie.cms.gov/Condition/delivery-of-singleton-947d"
      }, {
        "reference": "https://madie.cms.gov/Organization/123456"
      }, {
        "reference": "https://madie.cms.gov/Practitioner/practitioner-123456"
      } ]
    },
    "request": {
      "method": "POST",
      "url": "MeasureReport/7f7d12f4-1b47-4025-b4a8-7518547590f4"
    }
  } ]
}