{"resourceType":"Bundle","id":"tests-115708e8-59e4-4d92-b19a-621ccd7f1e68-bundle","type":"transaction","entry":[{"fullUrl":"https://madie.cms.gov/Patient/115708e8-59e4-4d92-b19a-621ccd7f1e68","resource":{"resourceType":"Patient","id":"115708e8-59e4-4d92-b19a-621ccd7f1e68","meta":{"profile":["http://hl7.org/fhir/us/qicore/StructureDefinition/qicore-patient"]},"extension":[{"url":"http://hl7.org/fhir/us/core/StructureDefinition/us-core-race","extension":[{"url":"ombCategory","valueCoding":{"system":"urn:oid:2.16.840.1.113883.6.238","code":"2028-9","display":"Asian"}},{"url":"text","valueString":"Asian"}]},{"url":"http://hl7.org/fhir/us/core/StructureDefinition/us-core-ethnicity","extension":[{"url":"ombCategory","valueCoding":{"system":"urn:oid:2.16.840.1.113883.6.238","code":"2135-2","display":"Hispanic or Latino"}},{"url":"text","valueString":"Hispanic or Latino"}]}],"identifier":[{"system":"http://hospital.smarthealthit.org","value":"999999995"}],"name":[{"family":"Bertha","given":["Betty"]}],"gender":"female","birthDate":"2022-01-01"},"request":{"method":"PUT","url":"Patient/115708e8-59e4-4d92-b19a-621ccd7f1e68"}},{"fullUrl":"https://madie.cms.gov/Encounter/Encounter-10","resource":{"resourceType":"Encounter","id":"62e34a12-e4c4-468e-a7cb-2e2a0e357c2f","meta":{"profile":["http://hl7.org/fhir/us/qicore/StructureDefinition/qicore-encounter"]},"status":"finished","class":{"system":"http://terminology.hl7.org/CodeSystem/v3-ActCode","code":"AMB","display":"ambulatory"},"type":[{"coding":[{"system":"http://snomed.info/sct","code":"185317003","display":"Telephone encounter (procedure)"}]}],"subject":{"reference":"Patient/115708e8-59e4-4d92-b19a-621ccd7f1e68"},"period":{"start":"2025-01-02T00:00:00.000Z","end":"2025-01-02T01:15:00.000Z"}},"request":{"method":"PUT","url":"Encounter/62e34a12-e4c4-468e-a7cb-2e2a0e357c2f"}},{"fullUrl":"https://madie.cms.gov/MedicationRequest/MedicationRequest-10","resource":{"resourceType":"MedicationRequest","id":"39215ab3-aa82-4d6c-b3d5-1828ff21ee69","meta":{"profile":["http://hl7.org/fhir/us/qicore/StructureDefinition/qicore-medicationrequest"]},"status":"active","intent":"order","category":[{"coding":[{"system":"http://terminology.hl7.org/CodeSystem/medicationrequest-category","code":"discharge","display":"Discharge"}]}],"medicationCodeableConcept":{"coding":[{"system":"http://www.nlm.nih.gov/research/umls/rxnorm","code":"1043022","display":"cefixime 100 MG Chewable Tablet","userSelected":true}]},"subject":{"reference":"Patient/115708e8-59e4-4d92-b19a-621ccd7f1e68"},"authoredOn":"2025-01-05T00:00:00.000Z","requester":{"reference":"Practitioner/example"}},"request":{"method":"PUT","url":"MedicationRequest/39215ab3-aa82-4d6c-b3d5-1828ff21ee69"}},{"fullUrl":"https://madie.cms.gov/Condition/Condition-10","resource":{"resourceType":"Condition","id":"bf15554f-bd90-4ba3-81c3-ef6e089acb62","meta":{"profile":["http://hl7.org/fhir/us/qicore/StructureDefinition/qicore-condition"]},"clinicalStatus":{"coding":[{"system":"http://terminology.hl7.org/CodeSystem/condition-clinical","code":"active"}]},"category":[{"coding":[{"system":"http://terminology.hl7.org/CodeSystem/condition-category","code":"problem-list-item","display":"Problem List Item"}]}],"code":{"coding":[{"system":"http://snomed.info/sct","code":"1532007","display":"Viral pharyngitis (disorder)"}]},"subject":{"reference":"Patient/115708e8-59e4-4d92-b19a-621ccd7f1e68"},"onsetDateTime":"2025-01-02T00:00:00.000Z"},"request":{"method":"PUT","url":"Condition/bf15554f-bd90-4ba3-81c3-ef6e089acb62"}},{"fullUrl":"https://madie.cms.gov/Observation/Observation-10","resource":{"resourceType":"Observation","id":"3e1247b3-01dc-4722-a5f9-61f5de29e16e","meta":{"profile":["http://hl7.org/fhir/us/qicore/StructureDefinition/qicore-observation"]},"status":"final","category":[{"coding":[{"system":"http://terminology.hl7.org/CodeSystem/observation-category","code":"laboratory","display":"Laboratory"}],"text":"Laboratory"}],"code":{"coding":[{"system":"http://loinc.org","code":"17898-8","display":"Bacteria identified in Throat by Aerobe culture"}]},"subject":{"reference":"Patient/115708e8-59e4-4d92-b19a-621ccd7f1e68"},"effectiveDateTime":"2025-01-06T00:00:00.000Z","valueString":"Positive"},"request":{"method":"PUT","url":"Observation/3e1247b3-01dc-4722-a5f9-61f5de29e16e"}},{"fullUrl":"https://madie.cms.gov/MeasureReport/de4dd659-a797-4e0f-81bd-565d620e80e1","resource":{"resourceType":"MeasureReport","id":"de4dd659-a797-4e0f-81bd-565d620e80e1","meta":{"profile":["http://hl7.org/fhir/us/cqfmeasures/StructureDefinition/test-case-cqfm"]},"contained":[{"resourceType":"Parameters","id":"961407a2-d2f4-4fe7-8692-beff1faef015-parameters","parameter":[{"name":"subject","valueString":"115708e8-59e4-4d92-b19a-621ccd7f1e68"}]}],"extension":[{"url":"http://hl7.org/fhir/us/cqfmeasures/StructureDefinition/cqfm-inputParameters","valueReference":{"reference":"#961407a2-d2f4-4fe7-8692-beff1faef015-parameters"}},{"url":"http://hl7.org/fhir/us/cqfmeasures/StructureDefinition/cqfm-testCaseDescription","valueMarkdown":"Strep lab test 4 days after qualifying encounter"}],"modifierExtension":[{"url":"http://hl7.org/fhir/us/cqfmeasures/StructureDefinition/cqfm-isTestCase","valueBoolean":true}],"status":"complete","type":"individual","measure":"https://madie.cms.gov/Measure/AppropriateTestingforPharyngitisFHIR","period":{"start":"2025-01-01","end":"2025-12-31"},"group":[{"population":[{"code":{"coding":[{"system":"http://terminology.hl7.org/CodeSystem/measure-population","code":"initial-population","display":"Initial Population"}]},"count":1},{"code":{"coding":[{"system":"http://terminology.hl7.org/CodeSystem/measure-population","code":"denominator","display":"Denominator"}]},"count":1},{"code":{"coding":[{"system":"http://terminology.hl7.org/CodeSystem/measure-population","code":"denominator-exclusion","display":"Denominator Exclusion"}]},"count":0},{"code":{"coding":[{"system":"http://terminology.hl7.org/CodeSystem/measure-population","code":"numerator","display":"Numerator"}]},"count":0}]}]},"request":{"method":"PUT","url":"MeasureReport/de4dd659-a797-4e0f-81bd-565d620e80e1"}}]}