{
  "resourceType": "Bundle",
  "id": "612e6ee202c62a011f2eff14",
  "type": "transaction",
  "entry": [ {
    "fullUrl": "https://madie.cms.gov/Patient/a76285c9-54cb-4389-8596-874dbdb998db",
    "resource": {
      "resourceType": "Patient",
      "id": "a76285c9-54cb-4389-8596-874dbdb998db",
      "meta": {
        "profile": [ "http://hl7.org/fhir/us/qicore/StructureDefinition/qicore-patient" ]
      },
      "text": {
        "status": "generated",
        "div": "<div xmlns=\"http://www.w3.org/1999/xhtml\"><div class=\"hapiHeaderText\">MedReasonMALDUDAIPC2DayAfterAnes <b>NUMERFAIL </b></div><table class=\"hapiPropertyTable\"><tbody><tr><td>Identifier</td><td>39c81b9bc72445874f3c2841a7094a3f</td></tr><tr><td>Date of birth</td><td><span>03 March 1974</span></td></tr></tbody></table></div>"
      },
      "extension": [ {
        "url": "http://hl7.org/fhir/us/core/StructureDefinition/us-core-race",
        "extension": [ {
          "url": "ombCategory",
          "valueCoding": {
            "system": "urn:oid:2.16.840.1.113883.6.238",
            "code": "1002-5",
            "display": "American Indian or Alaska Native",
            "userSelected": true
          }
        }, {
          "url": "text",
          "valueString": "American Indian or Alaska Native"
        } ]
      }, {
        "url": "http://hl7.org/fhir/us/core/StructureDefinition/us-core-ethnicity",
        "extension": [ {
          "url": "ombCategory",
          "valueCoding": {
            "system": "urn:oid:2.16.840.1.113883.6.238",
            "code": "2135-2",
            "display": "Hispanic or Latino",
            "userSelected": true
          }
        }, {
          "url": "text",
          "valueString": "Hispanic or Latino"
        } ]
      } ],
      "identifier": [ {
        "type": {
          "coding": [ {
            "system": "http://terminology.hl7.org/CodeSystem/v2-0203",
            "code": "MR"
          } ]
        },
        "system": "https://bonnie-fhir.healthit.gov/",
        "value": "612e6ee202c62a011f2eff14"
      } ],
      "active": true,
      "name": [ {
        "use": "usual",
        "family": "NUMERFail",
        "given": [ "MedReasonMALDUDAIPC2DayAfterAnes" ]
      } ],
      "gender": "female",
      "birthDate": "1974-03-03"
    },
    "request": {
      "method": "POST",
      "url": "Patient/a76285c9-54cb-4389-8596-874dbdb998db"
    }
  }, {
    "fullUrl": "https://madie.cms.gov/Encounter/5ce80970b848467c29eaf293",
    "resource": {
      "resourceType": "Encounter",
      "id": "5ce80970b848467c29eaf293",
      "meta": {
        "profile": [ "http://hl7.org/fhir/us/qicore/StructureDefinition/qicore-encounter" ]
      },
      "status": "finished",
      "class": {
        "system": "http://terminology.hl7.org/CodeSystem/v3-ActCode",
        "code": "IMP",
        "display": "inpatient encounter"
      },
      "type": [ {
        "coding": [ {
          "system": "http://snomed.info/sct",
          "code": "8715000"
        } ]
      } ],
      "subject": {
        "reference": "Patient/a76285c9-54cb-4389-8596-874dbdb998db"
      },
      "period": {
        "start": "2025-12-04T08:00:00+00:00",
        "end": "2025-12-30T08:15:00+00:00"
      },
      "length": {
        "value": 26.0,
        "unit": "days"
      },
      "location": [ {
        "location": {
          "reference": "Location/intensive-care-unit-d508"
        },
        "period": {
          "start": "2025-12-06T08:00:00.000+00:00",
          "end": "2025-12-12T08:15:00.000+00:00"
        }
      } ]
    },
    "request": {
      "method": "POST",
      "url": "Encounter/5ce80970b848467c29eaf293"
    }
  }, {
    "fullUrl": "https://madie.cms.gov/Coverage/5fa040f21c76ba66d9958f7c",
    "resource": {
      "resourceType": "Coverage",
      "id": "5fa040f21c76ba66d9958f7c",
      "status": "active",
      "beneficiary": {
        "reference": "Patient/a76285c9-54cb-4389-8596-874dbdb998db"
      },
      "period": {
        "start": "1974-03-03T08:00:00+00:00"
      },
      "payor": [ {
        "reference": "Organization/123456"
      } ]
    },
    "request": {
      "method": "POST",
      "url": "Coverage/5fa040f21c76ba66d9958f7c"
    }
  }, {
    "fullUrl": "https://madie.cms.gov/Procedure/5ce80970b848467c29eaf294",
    "resource": {
      "resourceType": "Procedure",
      "id": "5ce80970b848467c29eaf294",
      "meta": {
        "profile": [ "http://hl7.org/fhir/us/qicore/StructureDefinition/qicore-procedurenotdone" ]
      },
      "extension": [ {
        "url": "http://hl7.org/fhir/us/qicore/StructureDefinition/qicore-recorded",
        "valueDateTime": "2025-11-01T07:00:00+00:00"
      } ],
      "status": "not-done",
      "statusReason": {
        "coding": [ {
          "system": "http://snomed.info/sct",
          "code": "183932001",
          "display": "Procedure contraindicated (situation)",
          "userSelected": true
        } ]
      },
      "code": {
        "coding": [ {
          "system": "http://snomed.info/sct",
          "code": "443448006",
          "display": "Application of intermittent pneumatic compression device (procedure)",
          "userSelected": true
        } ]
      },
      "subject": {
        "reference": "Patient/a76285c9-54cb-4389-8596-874dbdb998db"
      },
      "_performedDateTime": {
        "extension": [ {
          "url": "http://hl7.org/fhir/StructureDefinition/data-absent-reason",
          "valueCode": "not-performed"
        } ]
      }
    },
    "request": {
      "method": "POST",
      "url": "Procedure/5ce80970b848467c29eaf294"
    }
  }, {
    "fullUrl": "https://madie.cms.gov/MedicationAdministration/5ce80970b848467c29eaf295",
    "resource": {
      "resourceType": "MedicationAdministration",
      "id": "5ce80970b848467c29eaf295",
      "meta": {
        "profile": [ "http://hl7.org/fhir/us/qicore/StructureDefinition/qicore-mednotadministered" ]
      },
      "extension": [ {
        "url": "http://hl7.org/fhir/us/qicore/StructureDefinition/qicore-recorded",
        "valueDateTime": "2025-12-08T07:00:00+00:00"
      } ],
      "status": "not-done",
      "statusReason": [ {
        "coding": [ {
          "system": "http://snomed.info/sct",
          "code": "183932001"
        } ]
      } ],
      "medicationCodeableConcept": {
        "coding": [ {
          "system": "http://www.nlm.nih.gov/research/umls/rxnorm",
          "code": "1658634"
        } ]
      },
      "subject": {
        "reference": "Patient/a76285c9-54cb-4389-8596-874dbdb998db"
      },
      "effectivePeriod": {
        "start": "2025-12-08T11:30:00+00:00"
      }
    },
    "request": {
      "method": "POST",
      "url": "MedicationAdministration/5ce80970b848467c29eaf295"
    }
  }, {
    "fullUrl": "https://madie.cms.gov/Procedure/5ce80970b848467c29eaf296",
    "resource": {
      "resourceType": "Procedure",
      "id": "5ce80970b848467c29eaf296",
      "status": "completed",
      "code": {
        "coding": [ {
          "system": "http://www.icd10data.com/icd10pcs",
          "code": "3E030FZ"
        }, {
          "system": "http://snomed.info/sct",
          "code": "18946005"
        } ]
      },
      "subject": {
        "reference": "Patient/a76285c9-54cb-4389-8596-874dbdb998db"
      },
      "performedPeriod": {
        "start": "2025-12-04T11:00:00+00:00",
        "end": "2025-12-06T11:15:00+00:00"
      }
    },
    "request": {
      "method": "POST",
      "url": "Procedure/5ce80970b848467c29eaf296"
    }
  }, {
    "fullUrl": "https://madie.cms.gov/Location/intensive-care-unit-d508",
    "resource": {
      "resourceType": "Location",
      "id": "intensive-care-unit-d508",
      "meta": {
        "profile": [ "http://hl7.org/fhir/us/qicore/StructureDefinition/qicore-location" ]
      },
      "identifier": [ {
        "use": "usual",
        "system": "http://exampleoflocation.com",
        "value": "B1-S.F2"
      } ],
      "name": "Medical Surgical East, first floor",
      "type": [ {
        "coding": [ {
          "system": "https://www.cdc.gov/nhsn/cdaportal/terminology/codesystem/hsloc.html",
          "code": "1025-6",
          "display": "Trauma Critical Care",
          "userSelected": true
        } ]
      } ]
    },
    "request": {
      "method": "POST",
      "url": "Location/intensive-care-unit-d508"
    }
  }, {
    "fullUrl": "https://madie.cms.gov/Organization/123456",
    "resource": {
      "resourceType": "Organization",
      "id": "123456",
      "meta": {
        "profile": [ "http://hl7.org/fhir/us/qicore/StructureDefinition/qicore-organization" ]
      },
      "identifier": [ {
        "use": "temp",
        "system": "urn:oid:2.16.840.1.113883.4.4",
        "value": "21-3259825"
      } ],
      "active": true,
      "type": [ {
        "coding": [ {
          "system": "http://terminology.hl7.org/CodeSystem/organization-type",
          "code": "pay",
          "display": "Payer"
        } ]
      } ],
      "name": "Blue Cross Blue Shield of Texas",
      "telecom": [ {
        "system": "phone",
        "value": "(+1) 972-766-6900"
      } ],
      "address": [ {
        "use": "billing",
        "type": "postal",
        "line": [ "P.O. Box 660044" ],
        "city": "Dallas",
        "state": "TX",
        "postalCode": "75266-0044",
        "country": "USA"
      } ]
    },
    "request": {
      "method": "POST",
      "url": "Organization/123456"
    }
  }, {
    "fullUrl": "https://madie.cms.gov/Practitioner/practitioner-123456",
    "resource": {
      "resourceType": "Practitioner",
      "id": "practitioner-123456",
      "identifier": [ {
        "system": "http://hl7.org/fhir/sid/us-npi",
        "value": "123456"
      } ],
      "name": [ {
        "family": "Evil",
        "prefix": [ "Dr" ]
      } ]
    },
    "request": {
      "method": "POST",
      "url": "Practitioner/practitioner-123456"
    }
  }, {
    "fullUrl": "https://madie.cms.gov/MeasureReport/5425dd71-a7f3-4312-93af-d59cb5ed01c3",
    "resource": {
      "resourceType": "MeasureReport",
      "id": "5425dd71-a7f3-4312-93af-d59cb5ed01c3",
      "meta": {
        "profile": [ "http://hl7.org/fhir/us/cqfmeasures/StructureDefinition/test-case-cqfm" ]
      },
      "contained": [ {
        "resourceType": "Parameters",
        "id": "1b1a3827-1520-4b00-8a8e-7436afbd3b24-parameters",
        "parameter": [ {
          "name": "subject",
          "valueString": "a76285c9-54cb-4389-8596-874dbdb998db"
        } ]
      } ],
      "extension": [ {
        "url": "http://hl7.org/fhir/us/cqfmeasures/StructureDefinition/cqfm-inputParameters",
        "valueReference": {
          "reference": "#1b1a3827-1520-4b00-8a8e-7436afbd3b24-parameters"
        }
      }, {
        "url": "http://hl7.org/fhir/us/cqfmeasures/StructureDefinition/cqfm-testCaseDescription",
        "valueMarkdown": "IPC not applied and unfractionated heparin not administered due to medical reason after neuraxial anesthesia. But Medication is 16 days  after Procedure\n"
      } ],
      "modifierExtension": [ {
        "url": "http://hl7.org/fhir/us/cqfmeasures/StructureDefinition/cqfm-isTestCase",
        "valueBoolean": true
      } ],
      "status": "complete",
      "type": "individual",
      "measure": "https://madie.cms.gov/Measure/IntensiveCareUnitVenousThromboembolismProphylaxisFHIR",
      "period": {
        "start": "2025-01-01",
        "end": "2025-12-31"
      },
      "group": [ {
        "population": [ {
          "code": {
            "coding": [ {
              "system": "http://terminology.hl7.org/CodeSystem/measure-population",
              "code": "initial-population",
              "display": "Initial Population"
            } ]
          },
          "count": 1
        }, {
          "code": {
            "coding": [ {
              "system": "http://terminology.hl7.org/CodeSystem/measure-population",
              "code": "denominator",
              "display": "Denominator"
            } ]
          },
          "count": 1
        }, {
          "code": {
            "coding": [ {
              "system": "http://terminology.hl7.org/CodeSystem/measure-population",
              "code": "denominator-exclusion",
              "display": "Denominator Exclusion"
            } ]
          },
          "count": 0
        }, {
          "code": {
            "coding": [ {
              "system": "http://terminology.hl7.org/CodeSystem/measure-population",
              "code": "numerator",
              "display": "Numerator"
            } ]
          },
          "count": 0
        }, {
          "code": {
            "coding": [ {
              "system": "http://terminology.hl7.org/CodeSystem/measure-population",
              "code": "denominator-exception",
              "display": "Denominator Exception"
            } ]
          },
          "count": 0
        } ]
      } ],
      "evaluatedResource": [ {
        "reference": "https://madie.cms.gov/Patient/a76285c9-54cb-4389-8596-874dbdb998db"
      }, {
        "reference": "https://madie.cms.gov/Encounter/5ce80970b848467c29eaf293"
      }, {
        "reference": "https://madie.cms.gov/Coverage/5fa040f21c76ba66d9958f7c"
      }, {
        "reference": "https://madie.cms.gov/Procedure/5ce80970b848467c29eaf294"
      }, {
        "reference": "https://madie.cms.gov/MedicationAdministration/5ce80970b848467c29eaf295"
      }, {
        "reference": "https://madie.cms.gov/Procedure/5ce80970b848467c29eaf296"
      }, {
        "reference": "https://madie.cms.gov/Location/intensive-care-unit-d508"
      }, {
        "reference": "https://madie.cms.gov/Organization/123456"
      }, {
        "reference": "https://madie.cms.gov/Practitioner/practitioner-123456"
      } ]
    },
    "request": {
      "method": "POST",
      "url": "MeasureReport/5425dd71-a7f3-4312-93af-d59cb5ed01c3"
    }
  } ]
}