{"resourceType":"Bundle","id":"tests-f9dc6aaa-64b2-4935-8cfd-dc6f8bef7f24-bundle","type":"transaction","entry":[{"fullUrl":"https://madie.cms.gov/Patient/f9dc6aaa-64b2-4935-8cfd-dc6f8bef7f24","resource":{"resourceType":"Patient","id":"f9dc6aaa-64b2-4935-8cfd-dc6f8bef7f24","meta":{"profile":["http://hl7.org/fhir/us/qicore/StructureDefinition/qicore-patient"]},"text":{"status":"generated","div":"<div xmlns=\"http://www.w3.org/1999/xhtml\"><div class=\"hapiHeaderText\">CMP_DayOf_RelvPerStart_OnEDEnd_EDEndLT1hrB4Obs_ObsEndLT1hrB4IP <b>DENEXPASS </b></div><table class=\"hapiPropertyTable\"><tbody><tr><td>Date of birth</td><td><span>01 January 1980</span></td></tr></tbody></table></div>"},"extension":[{"url":"http://hl7.org/fhir/us/core/StructureDefinition/us-core-race","extension":[{"url":"ombCategory","valueCoding":{"system":"urn:oid:2.16.840.1.113883.6.238","code":"2106-3","display":"White","userSelected":true}},{"url":"text","valueString":"White"}]},{"url":"http://hl7.org/fhir/us/core/StructureDefinition/us-core-ethnicity","extension":[{"url":"ombCategory","valueCoding":{"system":"urn:oid:2.16.840.1.113883.6.238","code":"2186-5","display":"Not Hispanic or Latino","userSelected":true}},{"url":"text","valueString":"Not Hispanic or Latino"}]}],"identifier":[{"type":{"coding":[{"system":"http://terminology.hl7.org/CodeSystem/v2-0203","code":"MR"}]},"system":"https://bonnie-fhir.healthit.gov/","value":"60f82c3098086b570510e2e7"}],"active":true,"name":[{"use":"usual","family":"DENEXPass","given":["CMP_DayOf_RelvPerStart_OnEDEnd_EDEndLT1hrB4Obs_ObsEndLT1hrB4IP"]}],"gender":"female","birthDate":"1981-01-01"},"request":{"method":"PUT","url":"Patient/f9dc6aaa-64b2-4935-8cfd-dc6f8bef7f24"}},{"fullUrl":"https://madie.cms.gov/Encounter/3b50f891-627b-408e-8d4a-b339224659b6","resource":{"resourceType":"Encounter","id":"3b50f891-627b-408e-8d4a-b339224659b6","meta":{"profile":["http://hl7.org/fhir/us/qicore/StructureDefinition/qicore-encounter"]},"status":"finished","class":{"system":"http://terminology.hl7.org/CodeSystem/v3-ActCode","code":"EMER","display":"emergency"},"type":[{"coding":[{"system":"http://snomed.info/sct","code":"4525004"}]}],"subject":{"reference":"Patient/f9dc6aaa-64b2-4935-8cfd-dc6f8bef7f24"},"period":{"start":"2026-11-18T07:00:00+00:00","end":"2026-11-18T08:01:00+00:00"},"diagnosis":[{"condition":{"reference":"Condition/08545620-dedc-4206-a90a-92d565760236"},"use":{"coding":[{"system":"http://terminology.hl7.org/CodeSystem/diagnosis-role","code":"billing","display":"Billing"}]},"rank":1}]},"request":{"method":"PUT","url":"Encounter/3b50f891-627b-408e-8d4a-b339224659b6"}},{"fullUrl":"https://madie.cms.gov/Encounter/0a2b3b28-bd39-4d60-87d5-3f26b346a4e3","resource":{"resourceType":"Encounter","id":"0a2b3b28-bd39-4d60-87d5-3f26b346a4e3","meta":{"profile":["http://hl7.org/fhir/us/qicore/StructureDefinition/qicore-encounter"]},"status":"finished","class":{"system":"http://terminology.hl7.org/CodeSystem/v3-ActCode","code":"OBSENC","display":"observation encounter"},"type":[{"coding":[{"system":"http://snomed.info/sct","code":"448951000124107"}]}],"subject":{"reference":"Patient/f9dc6aaa-64b2-4935-8cfd-dc6f8bef7f24"},"period":{"start":"2026-11-18T09:00:00+00:00","end":"2026-11-18T10:01:00+00:00"}},"request":{"method":"PUT","url":"Encounter/0a2b3b28-bd39-4d60-87d5-3f26b346a4e3"}},{"fullUrl":"https://madie.cms.gov/Encounter/f127d54a-fdf3-4a33-abfd-a74914ea6a9f","resource":{"resourceType":"Encounter","id":"f127d54a-fdf3-4a33-abfd-a74914ea6a9f","meta":{"profile":["http://hl7.org/fhir/us/qicore/StructureDefinition/qicore-encounter"]},"status":"finished","class":{"system":"http://terminology.hl7.org/CodeSystem/v3-ActCode","code":"IMP","display":"inpatient encounter"},"type":[{"coding":[{"system":"http://snomed.info/sct","code":"183452005"}]}],"subject":{"reference":"Patient/f9dc6aaa-64b2-4935-8cfd-dc6f8bef7f24"},"period":{"start":"2026-11-18T11:00:00+00:00","end":"2026-11-20T08:15:00+00:00"},"diagnosis":[{"condition":{"reference":"Condition/08545620-dedc-4206-a90a-92d565760236"},"use":{"coding":[{"system":"http://terminology.hl7.org/CodeSystem/diagnosis-role","code":"billing","display":"Billing"}]},"rank":1}]},"request":{"method":"PUT","url":"Encounter/f127d54a-fdf3-4a33-abfd-a74914ea6a9f"}},{"fullUrl":"https://madie.cms.gov/Procedure/4fa55e9a-da8f-4c3d-9ffe-bff6ccc5a758","resource":{"resourceType":"Procedure","id":"4fa55e9a-da8f-4c3d-9ffe-bff6ccc5a758","meta":{"profile":["http://hl7.org/fhir/us/qicore/StructureDefinition/qicore-procedure"]},"extension":[{"url":"http://hl7.org/fhir/us/qicore/StructureDefinition/qicore-recorded","valueDateTime":"2026-11-19T09:35:00-04:00"}],"status":"completed","code":{"coding":[{"system":"http://snomed.info/sct","code":"133918004"}]},"subject":{"reference":"Patient/f9dc6aaa-64b2-4935-8cfd-dc6f8bef7f24"},"performedPeriod":{"start":"2026-11-18T08:01:00+00:00","end":"2026-11-18T08:01:00+00:00"}},"request":{"method":"PUT","url":"Procedure/4fa55e9a-da8f-4c3d-9ffe-bff6ccc5a758"}},{"fullUrl":"https://madie.cms.gov/Condition/08545620-dedc-4206-a90a-92d565760236","resource":{"resourceType":"Condition","id":"08545620-dedc-4206-a90a-92d565760236","meta":{"profile":["http://hl7.org/fhir/us/qicore/StructureDefinition/qicore-condition"]},"clinicalStatus":{"coding":[{"system":"http://terminology.hl7.org/CodeSystem/condition-clinical","code":"active"}]},"verificationStatus":{"coding":[{"system":"http://terminology.hl7.org/CodeSystem/condition-ver-status","code":"confirmed"}]},"category":[{"coding":[{"system":"http://terminology.hl7.org/CodeSystem/condition-category","code":"encounter-diagnosis","display":"Encounter Diagnosis"}]}],"code":{"coding":[{"system":"http://snomed.info/sct","version":"2020-09","code":"111297002","display":"Nonparalytic stroke (disorder)","userSelected":true}]},"subject":{"reference":"Patient/f9dc6aaa-64b2-4935-8cfd-dc6f8bef7f24"},"recordedDate":"2026-08-13T08:00:00.000+00:00"},"request":{"method":"PUT","url":"Condition/08545620-dedc-4206-a90a-92d565760236"}},{"fullUrl":"https://madie.cms.gov/Coverage/de59d609-3ccc-4a5d-a284-b4eb97babd3d","resource":{"resourceType":"Coverage","id":"de59d609-3ccc-4a5d-a284-b4eb97babd3d","meta":{"profile":["http://hl7.org/fhir/us/qicore/StructureDefinition/qicore-coverage"]},"status":"active","beneficiary":{"reference":"Patient/f9dc6aaa-64b2-4935-8cfd-dc6f8bef7f24"},"payor":[{"reference":"Organization/aeb2c6be-6577-4bba-a6b6-6eab95111f1b"}]},"request":{"method":"PUT","url":"Coverage/de59d609-3ccc-4a5d-a284-b4eb97babd3d"}},{"fullUrl":"https://madie.cms.gov/Organization/ecb0c37f-9560-4a50-b2bf-edf3caa5703c","resource":{"resourceType":"Organization","id":"aeb2c6be-6577-4bba-a6b6-6eab95111f1b","meta":{"profile":["http://hl7.org/fhir/us/qicore/StructureDefinition/qicore-organization"]},"identifier":[{"use":"temp","system":"urn:oid:2.16.840.1.113883.4.4","value":"21-3259825"}],"active":true,"type":[{"coding":[{"system":"http://terminology.hl7.org/CodeSystem/organization-type","code":"pay","display":"Payer"}]}],"name":"Blue Cross Blue Shield of Texas","telecom":[{"system":"phone","value":"(+1) 972-766-6900"}],"address":[{"use":"billing","type":"postal","line":["P.O. Box 660044"],"city":"Dallas","state":"TX","postalCode":"75266-0044","country":"USA"}]},"request":{"method":"PUT","url":"Organization/aeb2c6be-6577-4bba-a6b6-6eab95111f1b"}},{"fullUrl":"https://madie.cms.gov/MeasureReport/d0f06c2b-1c9b-437c-a3d5-0ac270070cdd","resource":{"resourceType":"MeasureReport","id":"d0f06c2b-1c9b-437c-a3d5-0ac270070cdd","meta":{"profile":["http://hl7.org/fhir/us/cqfmeasures/StructureDefinition/test-case-cqfm"]},"contained":[{"resourceType":"Parameters","id":"d6ca7f97-c1f2-4b92-8081-1c0df8c933e2-parameters","parameter":[{"name":"subject","valueString":"f9dc6aaa-64b2-4935-8cfd-dc6f8bef7f24"}]}],"extension":[{"url":"http://hl7.org/fhir/us/cqfmeasures/StructureDefinition/cqfm-inputParameters","valueReference":{"reference":"#d6ca7f97-c1f2-4b92-8081-1c0df8c933e2-parameters"}},{"url":"http://hl7.org/fhir/us/cqfmeasures/StructureDefinition/cqfm-testCaseDescription","valueMarkdown":"Patient receives comfort measures performed on the day of hospital arrival, on ED end. ED ends less than 1 hour before Obs Start, Obs ends less than 1 hour before IP start.\n"}],"modifierExtension":[{"url":"http://hl7.org/fhir/us/cqfmeasures/StructureDefinition/cqfm-isTestCase","valueBoolean":true}],"status":"complete","type":"individual","measure":"https://madie.cms.gov/Measure/CMS72FHIRSTKAntithromboticDay2","period":{"start":"2026-01-01","end":"2026-12-31"},"group":[{"population":[{"code":{"coding":[{"system":"http://terminology.hl7.org/CodeSystem/measure-population","code":"initial-population","display":"Initial Population"}]},"count":1},{"code":{"coding":[{"system":"http://terminology.hl7.org/CodeSystem/measure-population","code":"denominator","display":"Denominator"}]},"count":1},{"code":{"coding":[{"system":"http://terminology.hl7.org/CodeSystem/measure-population","code":"denominator-exclusion","display":"Denominator Exclusion"}]},"count":1},{"code":{"coding":[{"system":"http://terminology.hl7.org/CodeSystem/measure-population","code":"numerator","display":"Numerator"}]},"count":0},{"code":{"coding":[{"system":"http://terminology.hl7.org/CodeSystem/measure-population","code":"denominator-exception","display":"Denominator Exception"}]},"count":0}]}]},"request":{"method":"PUT","url":"MeasureReport/d0f06c2b-1c9b-437c-a3d5-0ac270070cdd"}}]}