{"resourceType":"Bundle","id":"tests-89884742-86cd-4b6f-bed3-00f1929e06b2-bundle","type":"transaction","entry":[{"fullUrl":"https://madie.cms.gov/Patient/89884742-86cd-4b6f-bed3-00f1929e06b2","resource":{"resourceType":"Patient","id":"89884742-86cd-4b6f-bed3-00f1929e06b2","meta":{"profile":["http://hl7.org/fhir/us/qicore/StructureDefinition/qicore-patient"]},"text":{"status":"generated","div":"<div xmlns=\"http://www.w3.org/1999/xhtml\"><div class=\"hapiHeaderText\">CMP_DayOf_RelvDat_OnIPEnd_EDEndLT1hrB4Obs_ObsEndLT1hrB4IP <b>DENEXPASS </b></div><table class=\"hapiPropertyTable\"><tbody><tr><td>Date of birth</td><td><span>01 January 1980</span></td></tr></tbody></table></div>"},"extension":[{"url":"http://hl7.org/fhir/us/core/StructureDefinition/us-core-race","extension":[{"url":"ombCategory","valueCoding":{"system":"urn:oid:2.16.840.1.113883.6.238","code":"1002-5","display":"American Indian or Alaska Native","userSelected":true}},{"url":"text","valueString":"American Indian or Alaska Native"}]},{"url":"http://hl7.org/fhir/us/core/StructureDefinition/us-core-ethnicity","extension":[{"url":"ombCategory","valueCoding":{"system":"urn:oid:2.16.840.1.113883.6.238","code":"2186-5","display":"Not Hispanic or Latino","userSelected":true}},{"url":"text","valueString":"Not Hispanic or Latino"}]}],"identifier":[{"type":{"coding":[{"system":"http://terminology.hl7.org/CodeSystem/v2-0203","code":"MR"}]},"system":"https://bonnie-fhir.healthit.gov/","value":"60f82c3098086b570510e2e2"}],"active":true,"name":[{"use":"usual","family":"DENEXPass","given":["CMP_DayOf_RelvDat_OnIPEnd_EDEndLT1hrB4Obs_ObsEndLT1hrB4IP"]}],"gender":"female","birthDate":"1981-01-01"},"request":{"method":"PUT","url":"Patient/89884742-86cd-4b6f-bed3-00f1929e06b2"}},{"fullUrl":"https://madie.cms.gov/Encounter/d9f0c678-3930-4d62-aba9-0e2f9f45e453","resource":{"resourceType":"Encounter","id":"d9f0c678-3930-4d62-aba9-0e2f9f45e453","meta":{"profile":["http://hl7.org/fhir/us/qicore/StructureDefinition/qicore-encounter"]},"status":"finished","class":{"system":"http://terminology.hl7.org/CodeSystem/v3-ActCode","code":"EMER","display":"emergency"},"type":[{"coding":[{"system":"http://snomed.info/sct","code":"4525004"}]}],"subject":{"reference":"Patient/89884742-86cd-4b6f-bed3-00f1929e06b2"},"period":{"start":"2026-11-18T07:00:00+00:00","end":"2026-11-18T08:01:00+00:00"},"diagnosis":[{"condition":{"reference":"Condition/907e62a3-147b-4e6f-a37d-f58461126ec7"},"use":{"coding":[{"system":"http://snomed.info/sct","code":"111297002","display":"Nonparalytic stroke (disorder)"}]},"rank":1}]},"request":{"method":"PUT","url":"Encounter/d9f0c678-3930-4d62-aba9-0e2f9f45e453"}},{"fullUrl":"https://madie.cms.gov/Encounter/4b2c7e05-c548-4b2e-a28c-a4a8339cb645","resource":{"resourceType":"Encounter","id":"4b2c7e05-c548-4b2e-a28c-a4a8339cb645","meta":{"profile":["http://hl7.org/fhir/us/qicore/StructureDefinition/qicore-encounter"]},"status":"finished","class":{"system":"http://terminology.hl7.org/CodeSystem/v3-ActCode","code":"OBSENC","display":"observation encounter"},"type":[{"coding":[{"system":"http://snomed.info/sct","code":"448951000124107"}]}],"subject":{"reference":"Patient/89884742-86cd-4b6f-bed3-00f1929e06b2"},"period":{"start":"2026-11-18T09:00:00+00:00","end":"2026-11-18T10:01:00+00:00"}},"request":{"method":"PUT","url":"Encounter/4b2c7e05-c548-4b2e-a28c-a4a8339cb645"}},{"fullUrl":"https://madie.cms.gov/Encounter/3c59a3f1-b642-4bfd-8ca4-e22bc752c621","resource":{"resourceType":"Encounter","id":"3c59a3f1-b642-4bfd-8ca4-e22bc752c621","meta":{"profile":["http://hl7.org/fhir/us/qicore/StructureDefinition/qicore-encounter"]},"status":"finished","class":{"system":"http://terminology.hl7.org/CodeSystem/v3-ActCode","code":"IMP","display":"inpatient encounter"},"type":[{"coding":[{"system":"http://snomed.info/sct","code":"183452005"}]}],"subject":{"reference":"Patient/89884742-86cd-4b6f-bed3-00f1929e06b2"},"period":{"start":"2026-11-18T11:00:00+00:00","end":"2026-11-18T20:15:00+00:00"},"diagnosis":[{"condition":{"reference":"Condition/907e62a3-147b-4e6f-a37d-f58461126ec7"},"use":{"coding":[{"system":"http://terminology.hl7.org/CodeSystem/diagnosis-role","code":"billing","display":"Billing"}]},"rank":1}]},"request":{"method":"PUT","url":"Encounter/3c59a3f1-b642-4bfd-8ca4-e22bc752c621"}},{"fullUrl":"https://madie.cms.gov/Procedure/cc09b2b3-8845-4a32-92c4-d83f8da8c553","resource":{"resourceType":"Procedure","id":"cc09b2b3-8845-4a32-92c4-d83f8da8c553","meta":{"profile":["http://hl7.org/fhir/us/qicore/StructureDefinition/qicore-procedure"]},"extension":[{"url":"http://hl7.org/fhir/us/qicore/StructureDefinition/qicore-recorded","valueDateTime":"2026-11-18T08:15:00.000+00:00"}],"status":"completed","code":{"coding":[{"system":"http://snomed.info/sct","code":"133918004"}]},"subject":{"reference":"Patient/89884742-86cd-4b6f-bed3-00f1929e06b2"},"performedDateTime":"2026-11-18T08:15:00.000+00:00"},"request":{"method":"PUT","url":"Procedure/cc09b2b3-8845-4a32-92c4-d83f8da8c553"}},{"fullUrl":"https://madie.cms.gov/Condition/907e62a3-147b-4e6f-a37d-f58461126ec7","resource":{"resourceType":"Condition","id":"907e62a3-147b-4e6f-a37d-f58461126ec7","meta":{"profile":["http://hl7.org/fhir/us/qicore/StructureDefinition/qicore-condition"]},"clinicalStatus":{"coding":[{"system":"http://terminology.hl7.org/CodeSystem/condition-clinical","code":"active"}]},"verificationStatus":{"coding":[{"system":"http://terminology.hl7.org/CodeSystem/condition-ver-status","code":"confirmed"}]},"category":[{"coding":[{"system":"http://terminology.hl7.org/CodeSystem/condition-category","code":"encounter-diagnosis","display":"Encounter Diagnosis"}]}],"code":{"coding":[{"system":"http://snomed.info/sct","version":"2020-09","code":"111297002","display":"Nonparalytic stroke (disorder)","userSelected":true}]},"subject":{"reference":"Patient/89884742-86cd-4b6f-bed3-00f1929e06b2"},"recordedDate":"2026-08-13T08:00:00.000+00:00"},"request":{"method":"PUT","url":"Condition/907e62a3-147b-4e6f-a37d-f58461126ec7"}},{"fullUrl":"https://madie.cms.gov/Coverage/17e4024a-bd88-4dc7-b5f1-51801263d7e2","resource":{"resourceType":"Coverage","id":"17e4024a-bd88-4dc7-b5f1-51801263d7e2","meta":{"profile":["http://hl7.org/fhir/us/qicore/StructureDefinition/qicore-coverage"]},"status":"active","beneficiary":{"reference":"Patient/89884742-86cd-4b6f-bed3-00f1929e06b2"},"payor":[{"reference":"Organization/5ad6ea38-07e9-4482-9e1b-c09eee595be9"}]},"request":{"method":"PUT","url":"Coverage/17e4024a-bd88-4dc7-b5f1-51801263d7e2"}},{"fullUrl":"https://madie.cms.gov/Organization/2e3ec808-cc4b-41b0-b19f-1b50cbc95abf","resource":{"resourceType":"Organization","id":"5ad6ea38-07e9-4482-9e1b-c09eee595be9","meta":{"profile":["http://hl7.org/fhir/us/qicore/StructureDefinition/qicore-organization"]},"identifier":[{"use":"temp","system":"urn:oid:2.16.840.1.113883.4.4","value":"21-3259825"}],"active":true,"type":[{"coding":[{"system":"http://terminology.hl7.org/CodeSystem/organization-type","code":"pay","display":"Payer"}]}],"name":"Blue Cross Blue Shield of Texas","telecom":[{"system":"phone","value":"(+1) 972-766-6900"}],"address":[{"use":"billing","type":"postal","line":["P.O. Box 660044"],"city":"Dallas","state":"TX","postalCode":"75266-0044","country":"USA"}]},"request":{"method":"PUT","url":"Organization/5ad6ea38-07e9-4482-9e1b-c09eee595be9"}},{"fullUrl":"https://madie.cms.gov/MeasureReport/6640b2a0-43b5-4a0d-b269-7895e99b6de0","resource":{"resourceType":"MeasureReport","id":"6640b2a0-43b5-4a0d-b269-7895e99b6de0","meta":{"profile":["http://hl7.org/fhir/us/cqfmeasures/StructureDefinition/test-case-cqfm"]},"contained":[{"resourceType":"Parameters","id":"6a90ec8c-f886-4084-b51e-80dbea55d9f7-parameters","parameter":[{"name":"subject","valueString":"89884742-86cd-4b6f-bed3-00f1929e06b2"}]}],"extension":[{"url":"http://hl7.org/fhir/us/cqfmeasures/StructureDefinition/cqfm-inputParameters","valueReference":{"reference":"#6a90ec8c-f886-4084-b51e-80dbea55d9f7-parameters"}},{"url":"http://hl7.org/fhir/us/cqfmeasures/StructureDefinition/cqfm-testCaseDescription","valueMarkdown":"Patient receives comfort measures performed on the day of hospital arrival, on IP end. ED ends less than 1 hour before Obs Start, Obs ends less than 1 hour before IP start.\n"}],"modifierExtension":[{"url":"http://hl7.org/fhir/us/cqfmeasures/StructureDefinition/cqfm-isTestCase","valueBoolean":true}],"status":"complete","type":"individual","measure":"https://madie.cms.gov/Measure/CMS72FHIRSTKAntithromboticDay2","period":{"start":"2026-01-01","end":"2026-12-31"},"group":[{"population":[{"code":{"coding":[{"system":"http://terminology.hl7.org/CodeSystem/measure-population","code":"initial-population","display":"Initial Population"}]},"count":1},{"code":{"coding":[{"system":"http://terminology.hl7.org/CodeSystem/measure-population","code":"denominator","display":"Denominator"}]},"count":1},{"code":{"coding":[{"system":"http://terminology.hl7.org/CodeSystem/measure-population","code":"denominator-exclusion","display":"Denominator Exclusion"}]},"count":1},{"code":{"coding":[{"system":"http://terminology.hl7.org/CodeSystem/measure-population","code":"numerator","display":"Numerator"}]},"count":0},{"code":{"coding":[{"system":"http://terminology.hl7.org/CodeSystem/measure-population","code":"denominator-exception","display":"Denominator Exception"}]},"count":0}]}]},"request":{"method":"PUT","url":"MeasureReport/6640b2a0-43b5-4a0d-b269-7895e99b6de0"}}]}