{"resourceType":"Bundle","id":"tests-f0d37c4e-7377-4876-8533-f955963f96f9-bundle","type":"transaction","entry":[{"fullUrl":"https://madie.cms.gov/Patient/f0d37c4e-7377-4876-8533-f955963f96f9","resource":{"resourceType":"Patient","id":"f0d37c4e-7377-4876-8533-f955963f96f9","meta":{"profile":["http://hl7.org/fhir/us/qicore/StructureDefinition/qicore-patient"]},"text":{"status":"generated","div":"<div xmlns=\"http://www.w3.org/1999/xhtml\"><div class=\"hapiHeaderText\">MedTPA&gt;24HrB4IPEnc <b>DENEXFAIL </b></div><table class=\"hapiPropertyTable\"><tbody><tr><td>Identifier</td><td>0e329fbdb05cfc7063fe18633b359f69</td></tr><tr><td>Date of birth</td><td><span>26 September 1975</span></td></tr></tbody></table></div>"},"extension":[{"url":"http://hl7.org/fhir/us/core/StructureDefinition/us-core-race","extension":[{"url":"ombCategory","valueCoding":{"system":"urn:oid:2.16.840.1.113883.6.238","code":"2054-5","display":"Black or African American","userSelected":true}},{"url":"text","valueString":"Black or African American"}]},{"url":"http://hl7.org/fhir/us/core/StructureDefinition/us-core-ethnicity","extension":[{"url":"ombCategory","valueCoding":{"system":"urn:oid:2.16.840.1.113883.6.238","code":"2186-5","display":"Not Hispanic or Latino","userSelected":true}},{"url":"text","valueString":"Not Hispanic or Latino"}]}],"identifier":[{"type":{"coding":[{"system":"http://terminology.hl7.org/CodeSystem/v2-0203","code":"MR"}]},"system":"https://bonnie-fhir.healthit.gov/","value":"60f82c2e98086b570510e260"}],"active":true,"name":[{"use":"usual","family":"DENEXFail","given":["MedTPA>24HrB4IPEnc "]}],"gender":"female","birthDate":"1976-09-26"},"request":{"method":"PUT","url":"Patient/f0d37c4e-7377-4876-8533-f955963f96f9"}},{"fullUrl":"https://madie.cms.gov/Encounter/02f9cd51-5bf0-4c4e-baf5-c2bfc3ecbaa8","resource":{"resourceType":"Encounter","id":"02f9cd51-5bf0-4c4e-baf5-c2bfc3ecbaa8","meta":{"profile":["http://hl7.org/fhir/us/qicore/StructureDefinition/qicore-encounter"]},"status":"finished","class":{"system":"http://terminology.hl7.org/CodeSystem/v3-ActCode","code":"IMP","display":"inpatient encounter","userSelected":true},"type":[{"coding":[{"system":"http://snomed.info/sct","code":"32485007"}]}],"subject":{"reference":"Patient/f0d37c4e-7377-4876-8533-f955963f96f9"},"period":{"start":"2026-10-10T09:00:00+00:00","end":"2026-10-12T11:15:00+00:00"},"length":{"value":2,"unit":"days"},"diagnosis":[{"condition":{"reference":"Condition/fac793f7-e81f-4c0b-ae80-477b45104eda"},"use":{"coding":[{"system":"http://terminology.hl7.org/CodeSystem/diagnosis-role","code":"billing","display":"Billing"}]},"rank":1}]},"request":{"method":"PUT","url":"Encounter/02f9cd51-5bf0-4c4e-baf5-c2bfc3ecbaa8"}},{"fullUrl":"https://madie.cms.gov/MedicationAdministration/8ee70103-32bc-49b9-8406-28361c4f7b94","resource":{"resourceType":"MedicationAdministration","id":"8ee70103-32bc-49b9-8406-28361c4f7b94","meta":{"profile":["http://hl7.org/fhir/us/qicore/StructureDefinition/qicore-medicationadministration"]},"status":"completed","medicationCodeableConcept":{"coding":[{"system":"http://www.nlm.nih.gov/research/umls/rxnorm","code":"1804799"}]},"subject":{"reference":"Patient/f0d37c4e-7377-4876-8533-f955963f96f9"},"effectivePeriod":{"start":"2026-10-09T08:59:00+00:00"}},"request":{"method":"PUT","url":"MedicationAdministration/8ee70103-32bc-49b9-8406-28361c4f7b94"}},{"fullUrl":"https://madie.cms.gov/Coverage/988e1877-d060-445d-89e7-0ef79fa289c3","resource":{"resourceType":"Coverage","id":"988e1877-d060-445d-89e7-0ef79fa289c3","status":"active","beneficiary":{"reference":"Patient/f0d37c4e-7377-4876-8533-f955963f96f9"},"period":{"start":"1976-09-26T08:00:00+00:00"},"payor":[{"reference":"Organization/5ad6ea38-07e9-4482-9e1b-c09eee595be9"}]},"request":{"method":"PUT","url":"Coverage/988e1877-d060-445d-89e7-0ef79fa289c3"}},{"fullUrl":"https://madie.cms.gov/Condition/fac793f7-e81f-4c0b-ae80-477b45104eda","resource":{"resourceType":"Condition","id":"fac793f7-e81f-4c0b-ae80-477b45104eda","meta":{"profile":["http://hl7.org/fhir/us/qicore/StructureDefinition/qicore-condition"]},"clinicalStatus":{"coding":[{"system":"http://terminology.hl7.org/CodeSystem/condition-clinical","code":"active"}]},"verificationStatus":{"coding":[{"system":"http://terminology.hl7.org/CodeSystem/condition-ver-status","code":"confirmed"}]},"category":[{"coding":[{"system":"http://terminology.hl7.org/CodeSystem/condition-category","code":"encounter-diagnosis","display":"Encounter Diagnosis"}]}],"code":{"coding":[{"system":"http://snomed.info/sct","version":"2020-09","code":"111297002","display":"Nonparalytic stroke (disorder)","userSelected":true}]},"subject":{"reference":"Patient/f0d37c4e-7377-4876-8533-f955963f96f9"},"recordedDate":"2026-08-12T08:00:00.000+00:00"},"request":{"method":"PUT","url":"Condition/fac793f7-e81f-4c0b-ae80-477b45104eda"}},{"fullUrl":"https://madie.cms.gov/Organization/a44989da-ed95-4713-b721-dc1911afb5a0","resource":{"resourceType":"Organization","id":"5ad6ea38-07e9-4482-9e1b-c09eee595be9","meta":{"profile":["http://hl7.org/fhir/us/qicore/StructureDefinition/qicore-organization"]},"identifier":[{"use":"temp","system":"urn:oid:2.16.840.1.113883.4.4","value":"21-3259825"}],"active":true,"type":[{"coding":[{"system":"http://terminology.hl7.org/CodeSystem/organization-type","code":"pay","display":"Payer"}]}],"name":"Blue Cross Blue Shield of Texas","telecom":[{"system":"phone","value":"(+1) 972-766-6900"}],"address":[{"use":"billing","type":"postal","line":["P.O. Box 660044"],"city":"Dallas","state":"TX","postalCode":"75266-0044","country":"USA"}]},"request":{"method":"PUT","url":"Organization/5ad6ea38-07e9-4482-9e1b-c09eee595be9"}},{"fullUrl":"https://madie.cms.gov/MeasureReport/c4321fc9-f9cc-436d-9793-3202c6d88bf6","resource":{"resourceType":"MeasureReport","id":"c4321fc9-f9cc-436d-9793-3202c6d88bf6","meta":{"profile":["http://hl7.org/fhir/us/cqfmeasures/StructureDefinition/test-case-cqfm"]},"contained":[{"resourceType":"Parameters","id":"b9ae7fb7-e8bd-4e85-80cb-380e967b696b-parameters","parameter":[{"name":"subject","valueString":"f0d37c4e-7377-4876-8533-f955963f96f9"}]}],"extension":[{"url":"http://hl7.org/fhir/us/cqfmeasures/StructureDefinition/cqfm-inputParameters","valueReference":{"reference":"#b9ae7fb7-e8bd-4e85-80cb-380e967b696b-parameters"}},{"url":"http://hl7.org/fhir/us/cqfmeasures/StructureDefinition/cqfm-testCaseDescription","valueMarkdown":"Patient receives Med TPA > 24 hours before IP encounter starts. global.\"Hospitalization\" =(IP)\n"}],"modifierExtension":[{"url":"http://hl7.org/fhir/us/cqfmeasures/StructureDefinition/cqfm-isTestCase","valueBoolean":true}],"status":"complete","type":"individual","measure":"https://madie.cms.gov/Measure/CMS72FHIRSTKAntithromboticDay2","period":{"start":"2026-01-01","end":"2026-12-31"},"group":[{"population":[{"code":{"coding":[{"system":"http://terminology.hl7.org/CodeSystem/measure-population","code":"initial-population","display":"Initial Population"}]},"count":1},{"code":{"coding":[{"system":"http://terminology.hl7.org/CodeSystem/measure-population","code":"denominator","display":"Denominator"}]},"count":1},{"code":{"coding":[{"system":"http://terminology.hl7.org/CodeSystem/measure-population","code":"denominator-exclusion","display":"Denominator Exclusion"}]},"count":0},{"code":{"coding":[{"system":"http://terminology.hl7.org/CodeSystem/measure-population","code":"numerator","display":"Numerator"}]},"count":0},{"code":{"coding":[{"system":"http://terminology.hl7.org/CodeSystem/measure-population","code":"denominator-exception","display":"Denominator Exception"}]},"count":0}]}]},"request":{"method":"PUT","url":"MeasureReport/c4321fc9-f9cc-436d-9793-3202c6d88bf6"}}]}