{"resourceType":"Bundle","id":"tests-b569157b-b263-4b72-ab40-132bea1d8f71-bundle","type":"transaction","entry":[{"fullUrl":"https://madie.cms.gov/Patient/b569157b-b263-4b72-ab40-132bea1d8f71","resource":{"resourceType":"Patient","id":"b569157b-b263-4b72-ab40-132bea1d8f71","meta":{"profile":["http://hl7.org/fhir/us/qicore/StructureDefinition/qicore-patient"]},"text":{"status":"generated","div":"<div xmlns=\"http://www.w3.org/1999/xhtml\"><div class=\"hapiHeaderText\">MedAntithromboticStart_eq0dayDuringEncIP <b>NUMERPASS </b></div><table class=\"hapiPropertyTable\"><tbody><tr><td>Identifier</td><td>6aa79e9cebbde8275335fd99b030f3d5</td></tr><tr><td>Date of birth</td><td><span>26 September 1975</span></td></tr></tbody></table></div>"},"extension":[{"url":"http://hl7.org/fhir/us/core/StructureDefinition/us-core-race","extension":[{"url":"ombCategory","valueCoding":{"system":"urn:oid:2.16.840.1.113883.6.238","code":"2054-5","display":"Black or African American","userSelected":true}},{"url":"text","valueString":"Black or African American"}]},{"url":"http://hl7.org/fhir/us/core/StructureDefinition/us-core-ethnicity","extension":[{"url":"ombCategory","valueCoding":{"system":"urn:oid:2.16.840.1.113883.6.238","code":"2186-5","display":"Not Hispanic or Latino","userSelected":true}},{"url":"text","valueString":"Not Hispanic or Latino"}]}],"identifier":[{"type":{"coding":[{"system":"http://terminology.hl7.org/CodeSystem/v2-0203","code":"MR"}]},"system":"https://bonnie-fhir.healthit.gov/","value":"60f82c2d98086b570510e259"}],"active":true,"name":[{"use":"usual","family":"NUMERPass","given":["MedAntithromboticStart_eq0dayDuringEncIP "]}],"gender":"female","birthDate":"1976-09-26"},"request":{"method":"PUT","url":"Patient/b569157b-b263-4b72-ab40-132bea1d8f71"}},{"fullUrl":"https://madie.cms.gov/Encounter/d2b9c734-070e-4fd7-9d4b-c9bee702af16","resource":{"resourceType":"Encounter","id":"d2b9c734-070e-4fd7-9d4b-c9bee702af16","meta":{"profile":["http://hl7.org/fhir/us/qicore/StructureDefinition/qicore-encounter"]},"status":"finished","class":{"system":"http://terminology.hl7.org/CodeSystem/v3-ActCode","code":"IMP","display":"inpatient encounter"},"type":[{"coding":[{"system":"http://snomed.info/sct","code":"32485007"}]}],"subject":{"reference":"Patient/b569157b-b263-4b72-ab40-132bea1d8f71"},"period":{"start":"2026-10-10T09:00:00+00:00","end":"2026-10-12T11:15:00+00:00"},"length":{"value":2,"unit":"days"},"diagnosis":[{"condition":{"reference":"Condition/a16182a9-e482-48ae-9bb5-5ee81eaaae9b"},"use":{"coding":[{"system":"http://terminology.hl7.org/CodeSystem/diagnosis-role","code":"billing","display":"Billing"}]},"rank":1}]},"request":{"method":"PUT","url":"Encounter/d2b9c734-070e-4fd7-9d4b-c9bee702af16"}},{"fullUrl":"https://madie.cms.gov/MedicationAdministration/f34ea1ac-a140-4505-a2b7-8bbc4391116a","resource":{"resourceType":"MedicationAdministration","id":"f34ea1ac-a140-4505-a2b7-8bbc4391116a","meta":{"profile":["http://hl7.org/fhir/us/qicore/StructureDefinition/qicore-medicationadministration"]},"status":"completed","medicationCodeableConcept":{"coding":[{"system":"http://www.nlm.nih.gov/research/umls/rxnorm","code":"1037045"}]},"subject":{"reference":"Patient/b569157b-b263-4b72-ab40-132bea1d8f71"},"effectivePeriod":{"start":"2026-10-11T11:00:00+00:00"}},"request":{"method":"PUT","url":"MedicationAdministration/f34ea1ac-a140-4505-a2b7-8bbc4391116a"}},{"fullUrl":"https://madie.cms.gov/Coverage/7292c0f5-bfc8-45dd-a9be-62dbe62bce1a","resource":{"resourceType":"Coverage","id":"7292c0f5-bfc8-45dd-a9be-62dbe62bce1a","status":"active","beneficiary":{"reference":"Patient/b569157b-b263-4b72-ab40-132bea1d8f71"},"period":{"start":"1976-09-26T08:00:00+00:00"},"payor":[{"reference":"Organization/9e9b3f13-a353-4173-b29b-947d6f1f2031"}]},"request":{"method":"PUT","url":"Coverage/7292c0f5-bfc8-45dd-a9be-62dbe62bce1a"}},{"fullUrl":"https://madie.cms.gov/Condition/a16182a9-e482-48ae-9bb5-5ee81eaaae9b","resource":{"resourceType":"Condition","id":"a16182a9-e482-48ae-9bb5-5ee81eaaae9b","meta":{"profile":["http://hl7.org/fhir/us/qicore/StructureDefinition/qicore-condition"]},"clinicalStatus":{"coding":[{"system":"http://terminology.hl7.org/CodeSystem/condition-clinical","code":"active"}]},"verificationStatus":{"coding":[{"system":"http://terminology.hl7.org/CodeSystem/condition-ver-status","code":"confirmed"}]},"category":[{"coding":[{"system":"http://terminology.hl7.org/CodeSystem/condition-category","code":"encounter-diagnosis","display":"Encounter Diagnosis"}]}],"code":{"coding":[{"system":"http://snomed.info/sct","version":"2020-09","code":"111297002","display":"Nonparalytic stroke (disorder)","userSelected":true}]},"subject":{"reference":"Patient/b569157b-b263-4b72-ab40-132bea1d8f71"},"recordedDate":"2026-08-16T08:00:00.000+00:00"},"request":{"method":"PUT","url":"Condition/a16182a9-e482-48ae-9bb5-5ee81eaaae9b"}},{"fullUrl":"https://madie.cms.gov/Organization/27b0ad03-9a82-436a-a345-fe15a5f57ea1","resource":{"resourceType":"Organization","id":"9e9b3f13-a353-4173-b29b-947d6f1f2031","meta":{"profile":["http://hl7.org/fhir/us/qicore/StructureDefinition/qicore-organization"]},"identifier":[{"use":"temp","system":"urn:oid:2.16.840.1.113883.4.4","value":"21-3259825"}],"active":true,"type":[{"coding":[{"system":"http://terminology.hl7.org/CodeSystem/organization-type","code":"pay","display":"Payer"}]}],"name":"Blue Cross Blue Shield of Texas","telecom":[{"system":"phone","value":"(+1) 972-766-6900"}],"address":[{"use":"billing","type":"postal","line":["P.O. Box 660044"],"city":"Dallas","state":"TX","postalCode":"75266-0044","country":"USA"}]},"request":{"method":"PUT","url":"Organization/9e9b3f13-a353-4173-b29b-947d6f1f2031"}},{"fullUrl":"https://madie.cms.gov/Practitioner/0e57de27-bfcc-44f1-820f-cfdd3ef52946","resource":{"resourceType":"Practitioner","id":"0e57de27-bfcc-44f1-820f-cfdd3ef52946","identifier":[{"system":"http://hl7.org/fhir/sid/us-npi","value":"123456"}],"name":[{"family":"Evil","prefix":["Dr"]}]},"request":{"method":"PUT","url":"Practitioner/0e57de27-bfcc-44f1-820f-cfdd3ef52946"}},{"fullUrl":"https://madie.cms.gov/MeasureReport/c1c1188d-d4d7-4ed8-81e8-77a86b82e6f2","resource":{"resourceType":"MeasureReport","id":"c1c1188d-d4d7-4ed8-81e8-77a86b82e6f2","meta":{"profile":["http://hl7.org/fhir/us/cqfmeasures/StructureDefinition/test-case-cqfm"]},"contained":[{"resourceType":"Parameters","id":"339c7277-cd43-4e80-a8c9-fea9db2c5190-parameters","parameter":[{"name":"subject","valueString":"b569157b-b263-4b72-ab40-132bea1d8f71"}]}],"extension":[{"url":"http://hl7.org/fhir/us/cqfmeasures/StructureDefinition/cqfm-inputParameters","valueReference":{"reference":"#339c7277-cd43-4e80-a8c9-fea9db2c5190-parameters"}},{"url":"http://hl7.org/fhir/us/cqfmeasures/StructureDefinition/cqfm-testCaseDescription","valueMarkdown":"\"Patient receives antithrombotic in = 0 day after IP encounter starts.\n global.\"\"Hospitalization\"\" =(IP)\"\n"}],"modifierExtension":[{"url":"http://hl7.org/fhir/us/cqfmeasures/StructureDefinition/cqfm-isTestCase","valueBoolean":true}],"status":"complete","type":"individual","measure":"https://madie.cms.gov/Measure/CMS72FHIRSTKAntithromboticDay2","period":{"start":"2026-01-01","end":"2026-12-31"},"group":[{"population":[{"code":{"coding":[{"system":"http://terminology.hl7.org/CodeSystem/measure-population","code":"initial-population","display":"Initial Population"}]},"count":1},{"code":{"coding":[{"system":"http://terminology.hl7.org/CodeSystem/measure-population","code":"denominator","display":"Denominator"}]},"count":1},{"code":{"coding":[{"system":"http://terminology.hl7.org/CodeSystem/measure-population","code":"denominator-exclusion","display":"Denominator Exclusion"}]},"count":0},{"code":{"coding":[{"system":"http://terminology.hl7.org/CodeSystem/measure-population","code":"numerator","display":"Numerator"}]},"count":1},{"code":{"coding":[{"system":"http://terminology.hl7.org/CodeSystem/measure-population","code":"denominator-exception","display":"Denominator Exception"}]},"count":0}]}]},"request":{"method":"PUT","url":"MeasureReport/c1c1188d-d4d7-4ed8-81e8-77a86b82e6f2"}}]}