{
  "resourceType": "Bundle",
  "id": "612e6a4f02c62a011f2e9958",
  "type": "transaction",
  "entry": [ {
    "fullUrl": "https://madie.cms.gov/Patient/316da95d-60f2-4a74-9a28-7a4adb7c0098",
    "resource": {
      "resourceType": "Patient",
      "id": "316da95d-60f2-4a74-9a28-7a4adb7c0098",
      "meta": {
        "profile": [ "http://hl7.org/fhir/us/qicore/StructureDefinition/qicore-patient" ]
      },
      "text": {
        "status": "generated",
        "div": "<div xmlns=\"http://www.w3.org/1999/xhtml\"><div class=\"hapiHeaderText\">EncB4MP <b>IPPFAIL </b></div><table class=\"hapiPropertyTable\"><tbody><tr><td>Identifier</td><td>2d99ac3a4fb95c3e67df4d790ccc8402</td></tr><tr><td>Date of birth</td><td><span>01 January 2009</span></td></tr></tbody></table></div>"
      },
      "extension": [ {
        "url": "http://hl7.org/fhir/us/core/StructureDefinition/us-core-race",
        "extension": [ {
          "url": "ombCategory",
          "valueCoding": {
            "system": "urn:oid:2.16.840.1.113883.6.238",
            "code": "1002-5",
            "display": "American Indian or Alaska Native",
            "userSelected": true
          }
        }, {
          "url": "text",
          "valueString": "American Indian or Alaska Native"
        } ]
      }, {
        "url": "http://hl7.org/fhir/us/core/StructureDefinition/us-core-ethnicity",
        "extension": [ {
          "url": "ombCategory",
          "valueCoding": {
            "system": "urn:oid:2.16.840.1.113883.6.238",
            "code": "2135-2",
            "display": "Hispanic or Latino",
            "userSelected": true
          }
        }, {
          "url": "text",
          "valueString": "Hispanic or Latino"
        } ]
      } ],
      "identifier": [ {
        "type": {
          "coding": [ {
            "system": "http://terminology.hl7.org/CodeSystem/v2-0203",
            "code": "MR"
          } ]
        },
        "system": "https://bonnie-fhir.healthit.gov/",
        "value": "612e6a4f02c62a011f2e9958"
      } ],
      "active": true,
      "name": [ {
        "use": "usual",
        "family": "IPPFail",
        "given": [ "EncB4MP" ]
      } ],
      "gender": "male",
      "birthDate": "2009-01-01"
    },
    "request": {
      "method": "PUT",
      "url": "Patient/316da95d-60f2-4a74-9a28-7a4adb7c0098"
    }
  }, {
    "fullUrl": "https://madie.cms.gov/Encounter/5ca6295cb8484628b8de1d1c",
    "resource": {
      "resourceType": "Encounter",
      "id": "5ca6295cb8484628b8de1d1c",
      "meta": {
        "profile": [ "http://hl7.org/fhir/us/qicore/StructureDefinition/qicore-encounter" ]
      },
      "status": "finished",
      "class": {
        "system": "http://terminology.hl7.org/CodeSystem/v3-ActCode",
        "code": "IMP",
        "display": "inpatient encounter"
      },
      "type": [ {
        "coding": [ {
          "system": "http://snomed.info/sct",
          "code": "8715000"
        } ]
      } ],
      "subject": {
        "reference": "Patient/316da95d-60f2-4a74-9a28-7a4adb7c0098"
      },
      "period": {
        "start": "2025-11-01T08:00:00.000+00:00",
        "end": "2025-11-26T08:15:00.000+00:00"
      },
      "length": {
        "value": 329.0,
        "unit": "days"
      }
    },
    "request": {
      "method": "PUT",
      "url": "Encounter/5ca6295cb8484628b8de1d1c"
    }
  }, {
    "fullUrl": "https://madie.cms.gov/Coverage/5fa041471c76ba66d995914e",
    "resource": {
      "resourceType": "Coverage",
      "id": "5fa041471c76ba66d995914e",
      "status": "active",
      "beneficiary": {
        "reference": "Patient/316da95d-60f2-4a74-9a28-7a4adb7c0098"
      },
      "period": {
        "start": "2009-01-01T08:00:00+00:00"
      },
      "payor": [ {
        "reference": "Organization/Org-123456"
      } ]
    },
    "request": {
      "method": "PUT",
      "url": "Coverage/5fa041471c76ba66d995914e"
    }
  }, {
    "fullUrl": "https://madie.cms.gov/MedicationAdministration/5ca6295cb8484628b8de1d1d",
    "resource": {
      "resourceType": "MedicationAdministration",
      "id": "5ca6295cb8484628b8de1d1d",
      "status": "completed",
      "medicationCodeableConcept": {
        "coding": [ {
          "system": "http://www.nlm.nih.gov/research/umls/rxnorm",
          "code": "854228"
        } ]
      },
      "subject": {
        "reference": "Patient/316da95d-60f2-4a74-9a28-7a4adb7c0098"
      },
      "effectivePeriod": {
        "start": "2020-11-01T08:10:00+00:00",
        "end": "2020-12-26T08:15:00+00:00"
      }
    },
    "request": {
      "method": "PUT",
      "url": "MedicationAdministration/5ca6295cb8484628b8de1d1d"
    }
  }, {
    "fullUrl": "https://madie.cms.gov/Organization/123456",
    "resource": {
      "resourceType": "Organization",
      "id": "Org-123456",
      "meta": {
        "profile": [ "http://hl7.org/fhir/us/qicore/StructureDefinition/qicore-organization" ]
      },
      "identifier": [ {
        "use": "temp",
        "system": "urn:oid:2.16.840.1.113883.4.4",
        "value": "21-3259825"
      } ],
      "active": true,
      "type": [ {
        "coding": [ {
          "system": "http://terminology.hl7.org/CodeSystem/organization-type",
          "code": "pay",
          "display": "Payer"
        } ]
      } ],
      "name": "Blue Cross Blue Shield of Texas",
      "telecom": [ {
        "system": "phone",
        "value": "(+1) 972-766-6900"
      } ],
      "address": [ {
        "use": "billing",
        "type": "postal",
        "line": [ "P.O. Box 660044" ],
        "city": "Dallas",
        "state": "TX",
        "postalCode": "75266-0044",
        "country": "USA"
      } ]
    },
    "request": {
      "method": "PUT",
      "url": "Organization/Org-123456"
    }
  }, {
    "fullUrl": "https://madie.cms.gov/Practitioner/practitioner-123456",
    "resource": {
      "resourceType": "Practitioner",
      "id": "practitioner-123456",
      "identifier": [ {
        "system": "http://hl7.org/fhir/sid/us-npi",
        "value": "123456"
      } ],
      "name": [ {
        "family": "Evil",
        "prefix": [ "Dr" ]
      } ]
    },
    "request": {
      "method": "PUT",
      "url": "Practitioner/practitioner-123456"
    }
  }, {
    "fullUrl": "https://madie.cms.gov/MeasureReport/6681eedb-619d-4ace-a3a0-6d1e8cfc46fe",
    "resource": {
      "resourceType": "MeasureReport",
      "id": "6681eedb-619d-4ace-a3a0-6d1e8cfc46fe",
      "meta": {
        "profile": [ "http://hl7.org/fhir/us/cqfmeasures/StructureDefinition/test-case-cqfm" ]
      },
      "contained": [ {
        "resourceType": "Parameters",
        "id": "57df9688-1664-4c1f-a0c7-503b0f879a0a-parameters",
        "parameter": [ {
          "name": "subject",
          "valueString": "316da95d-60f2-4a74-9a28-7a4adb7c0098"
        } ]
      } ],
      "extension": [ {
        "url": "http://hl7.org/fhir/us/cqfmeasures/StructureDefinition/cqfm-inputParameters",
        "valueReference": {
          "reference": "#57df9688-1664-4c1f-a0c7-503b0f879a0a-parameters"
        }
      }, {
        "url": "http://hl7.org/fhir/us/cqfmeasures/StructureDefinition/cqfm-testCaseDescription",
        "valueMarkdown": "Age < 18 and encounter before MP\n"
      } ],
      "modifierExtension": [ {
        "url": "http://hl7.org/fhir/us/cqfmeasures/StructureDefinition/cqfm-isTestCase",
        "valueBoolean": true
      } ],
      "status": "complete",
      "type": "individual",
      "measure": "https://madie.cms.gov/Measure/VenousThromboembolismProphylaxisFHIR",
      "period": {
        "start": "2025-01-01",
        "end": "2025-12-31"
      },
      "group": [ {
        "population": [ {
          "code": {
            "coding": [ {
              "system": "http://terminology.hl7.org/CodeSystem/measure-population",
              "code": "initial-population",
              "display": "Initial Population"
            } ]
          },
          "count": 0
        }, {
          "code": {
            "coding": [ {
              "system": "http://terminology.hl7.org/CodeSystem/measure-population",
              "code": "denominator",
              "display": "Denominator"
            } ]
          },
          "count": 0
        }, {
          "code": {
            "coding": [ {
              "system": "http://terminology.hl7.org/CodeSystem/measure-population",
              "code": "denominator-exclusion",
              "display": "Denominator Exclusion"
            } ]
          },
          "count": 0
        }, {
          "code": {
            "coding": [ {
              "system": "http://terminology.hl7.org/CodeSystem/measure-population",
              "code": "numerator",
              "display": "Numerator"
            } ]
          },
          "count": 0
        } ]
      } ],
      "evaluatedResource": [ {
        "reference": "Patient/316da95d-60f2-4a74-9a28-7a4adb7c0098"
      }, {
        "reference": "Encounter/5ca6295cb8484628b8de1d1c"
      }, {
        "reference": "Coverage/5fa041471c76ba66d995914e"
      }, {
        "reference": "MedicationAdministration/5ca6295cb8484628b8de1d1d"
      }, {
        "reference": "Organization/Org-123456"
      }, {
        "reference": "Practitioner/practitioner-123456"
      } ]
    },
    "request": {
      "method": "PUT",
      "url": "MeasureReport/6681eedb-619d-4ace-a3a0-6d1e8cfc46fe"
    }
  } ]
}