{"resourceType":"Bundle","id":"tests-1d012d11-4b38-4bdc-bd27-e7d8bcc88c89-bundle","type":"transaction","entry":[{"fullUrl":"https://madie.cms.gov/Patient/1d012d11-4b38-4bdc-bd27-e7d8bcc88c89","resource":{"resourceType":"Patient","id":"1d012d11-4b38-4bdc-bd27-e7d8bcc88c89","meta":{"profile":["http://hl7.org/fhir/us/qicore/StructureDefinition/qicore-patient"]},"extension":[{"url":"http://hl7.org/fhir/us/core/StructureDefinition/us-core-race","extension":[{"url":"ombCategory","valueCoding":{"system":"urn:oid:2.16.840.1.113883.6.238","code":"2076-8","display":"Native Hawaiian or Other Pacific Islander","userSelected":true}},{"url":"text","valueString":"Native Hawaiian or Other Pacific Islander"}]},{"url":"http://hl7.org/fhir/us/core/StructureDefinition/us-core-ethnicity","extension":[{"url":"ombCategory","valueCoding":{"system":"urn:oid:2.16.840.1.113883.6.238","code":"2135-2","display":"Hispanic or Latino","userSelected":true}},{"url":"text","valueString":"Hispanic or Latino"}]}],"identifier":[{"type":{"coding":[{"system":"http://terminology.hl7.org/CodeSystem/v2-0203","code":"MR"}]},"system":"https://bonnie-fhir.healthit.gov/","value":"6413812c4b11b147841ab911"}],"name":[{"family":"NUMERPass","given":["EdgeAge85Jan1"]}],"gender":"male","birthDate":"1940-01-01"},"request":{"method":"PUT","url":"Patient/1d012d11-4b38-4bdc-bd27-e7d8bcc88c89"}},{"fullUrl":"https://madie.cms.gov/Condition/diabetes-b912","resource":{"resourceType":"Condition","id":"diabetes-b912","meta":{"profile":["http://hl7.org/fhir/us/qicore/StructureDefinition/qicore-condition"]},"clinicalStatus":{"coding":[{"system":"http://terminology.hl7.org/CodeSystem/condition-clinical","code":"active","display":"active","userSelected":true}]},"category":[{"coding":[{"system":"http://terminology.hl7.org/CodeSystem/condition-category","code":"problem-list-item","display":"Problem List Item","userSelected":true}]}],"code":{"coding":[{"system":"http://snomed.info/sct","version":"2021-09","code":"102781000119107","display":"Sensory neuropathy due to type 1 diabetes mellitus (disorder)","userSelected":true}]},"subject":{"reference":"Patient/1d012d11-4b38-4bdc-bd27-e7d8bcc88c89"},"onsetDateTime":"2023-07-11T08:00:00.000+00:00"},"request":{"method":"PUT","url":"Condition/diabetes-b912"}},{"fullUrl":"https://madie.cms.gov/Encounter/home-healthcare-services-b913","resource":{"resourceType":"Encounter","id":"home-healthcare-services-b913","meta":{"profile":["http://hl7.org/fhir/us/qicore/StructureDefinition/qicore-encounter"]},"status":"finished","class":{"system":"http://terminology.hl7.org/CodeSystem/v3-ActCode","code":"AMB","display":"ambulatory","userSelected":true},"type":[{"coding":[{"system":"http://snomed.info/sct","version":"2021-09","code":"185460008","display":"Home visit request by patient (procedure)","userSelected":true}]}],"subject":{"reference":"Patient/1d012d11-4b38-4bdc-bd27-e7d8bcc88c89"},"period":{"start":"2025-03-16T08:00:00.000+00:00","end":"2025-03-16T08:15:00.000+00:00"}},"request":{"method":"PUT","url":"Encounter/home-healthcare-services-b913"}},{"fullUrl":"https://madie.cms.gov/Observation/estimated-glomerular-filtration-rate-b914","resource":{"resourceType":"Observation","id":"estimated-glomerular-filtration-rate-b914","meta":{"profile":["http://hl7.org/fhir/us/qicore/StructureDefinition/qicore-observation"]},"status":"final","category":[{"coding":[{"system":"http://terminology.hl7.org/CodeSystem/observation-category","code":"laboratory","display":"Laboratory","userSelected":true}]}],"code":{"coding":[{"system":"http://loinc.org","version":"2.71","code":"48642-3","display":"Glomerular filtration rate/1.73 sq M.predicted among non-blacks [Volume Rate/Area] in Serum, Plasma or Blood by Creatinine-based formula (MDRD)","userSelected":true}]},"subject":{"reference":"Patient/1d012d11-4b38-4bdc-bd27-e7d8bcc88c89"},"effectiveDateTime":"2025-03-16T08:00:00.000+00:00","valueBoolean":true},"request":{"method":"PUT","url":"Observation/estimated-glomerular-filtration-rate-b914"}},{"fullUrl":"https://madie.cms.gov/Observation/urine-albumin-creatinine-ratio-b915","resource":{"resourceType":"Observation","id":"urine-albumin-creatinine-ratio-b915","meta":{"profile":["http://hl7.org/fhir/us/qicore/StructureDefinition/qicore-observation"]},"status":"final","category":[{"coding":[{"system":"http://terminology.hl7.org/CodeSystem/observation-category","code":"laboratory","display":"Laboratory","userSelected":true}]}],"code":{"coding":[{"system":"http://loinc.org","version":"2.71","code":"13705-9","display":"Albumin/Creatinine [Mass Ratio] in 24 hour Urine","userSelected":true}]},"subject":{"reference":"Patient/1d012d11-4b38-4bdc-bd27-e7d8bcc88c89"},"effectiveDateTime":"2025-03-16T08:00:00.000+00:00","valueBoolean":true},"request":{"method":"PUT","url":"Observation/urine-albumin-creatinine-ratio-b915"}},{"fullUrl":"https://madie.cms.gov/MeasureReport/5964ffe4-4ef6-4c52-9851-c546c7868a29","resource":{"resourceType":"MeasureReport","id":"5964ffe4-4ef6-4c52-9851-c546c7868a29","meta":{"profile":["http://hl7.org/fhir/us/cqfmeasures/StructureDefinition/test-case-cqfm"]},"contained":[{"resourceType":"Parameters","id":"541127f3-5f00-460b-8bff-ddbc1c4dddb5-parameters","parameter":[{"name":"subject","valueString":"1d012d11-4b38-4bdc-bd27-e7d8bcc88c89"}]}],"extension":[{"url":"http://hl7.org/fhir/us/cqfmeasures/StructureDefinition/cqfm-inputParameters","valueReference":{"reference":"#541127f3-5f00-460b-8bff-ddbc1c4dddb5-parameters"}},{"url":"http://hl7.org/fhir/us/cqfmeasures/StructureDefinition/cqfm-testCaseDescription","valueMarkdown":"This patient turns 85 years the first day of the measurement period and has a qualifying encounter, active diabetes, and both qualifying labs. This case tests the IPP age criteria."}],"modifierExtension":[{"url":"http://hl7.org/fhir/us/cqfmeasures/StructureDefinition/cqfm-isTestCase","valueBoolean":true}],"status":"complete","type":"individual","measure":"https://madie.cms.gov/Measure/KidneyHealthEvaluationFHIR","period":{"start":"2025-01-01","end":"2025-12-31"},"group":[{"population":[{"code":{"coding":[{"system":"http://terminology.hl7.org/CodeSystem/measure-population","code":"initial-population","display":"Initial Population"}]},"count":1},{"code":{"coding":[{"system":"http://terminology.hl7.org/CodeSystem/measure-population","code":"denominator","display":"Denominator"}]},"count":1},{"code":{"coding":[{"system":"http://terminology.hl7.org/CodeSystem/measure-population","code":"denominator-exclusion","display":"Denominator Exclusion"}]},"count":0},{"code":{"coding":[{"system":"http://terminology.hl7.org/CodeSystem/measure-population","code":"numerator","display":"Numerator"}]},"count":1}]}],"evaluatedResource":[{"reference":"Patient/1d012d11-4b38-4bdc-bd27-e7d8bcc88c89"},{"reference":"Condition/diabetes-b912"},{"reference":"Encounter/home-healthcare-services-b913"},{"reference":"Observation/estimated-glomerular-filtration-rate-b914"},{"reference":"Observation/urine-albumin-creatinine-ratio-b915"}]},"request":{"method":"PUT","url":"MeasureReport/5964ffe4-4ef6-4c52-9851-c546c7868a29"}}]}