{"resourceType":"Bundle","id":"tests-b6ac3dd1-ff55-4152-be9a-153cad2ba2a2-bundle","type":"transaction","entry":[{"fullUrl":"https://madie.cms.gov/Patient/b6ac3dd1-ff55-4152-be9a-153cad2ba2a2","resource":{"resourceType":"Patient","id":"b6ac3dd1-ff55-4152-be9a-153cad2ba2a2","meta":{"profile":["http://hl7.org/fhir/us/qicore/StructureDefinition/qicore-patient"]},"extension":[{"url":"http://hl7.org/fhir/us/core/StructureDefinition/us-core-race","extension":[{"url":"ombCategory","valueCoding":{"system":"urn:oid:2.16.840.1.113883.6.238","code":"2076-8","display":"Native Hawaiian or Other Pacific Islander","userSelected":true}},{"url":"text","valueString":"Native Hawaiian or Other Pacific Islander"}]},{"url":"http://hl7.org/fhir/us/core/StructureDefinition/us-core-ethnicity","extension":[{"url":"ombCategory","valueCoding":{"system":"urn:oid:2.16.840.1.113883.6.238","code":"2186-5","display":"Not Hispanic or Latino","userSelected":true}},{"url":"text","valueString":"Not Hispanic or Latino"}]}],"identifier":[{"type":{"coding":[{"system":"http://terminology.hl7.org/CodeSystem/v2-0203","code":"MR"}]},"system":"https://bonnie-fhir.healthit.gov/","value":"641369694b11b147841ab8ab"}],"name":[{"family":"DENEXPass","given":["EncounterPerfPalliativeCare"]}],"gender":"male","birthDate":"1963-03-22"},"request":{"method":"PUT","url":"Patient/b6ac3dd1-ff55-4152-be9a-153cad2ba2a2"}},{"fullUrl":"https://madie.cms.gov/Condition/diabetes-b8a6","resource":{"resourceType":"Condition","id":"diabetes-b8a6","meta":{"profile":["http://hl7.org/fhir/us/qicore/StructureDefinition/qicore-condition"]},"clinicalStatus":{"coding":[{"system":"http://terminology.hl7.org/CodeSystem/condition-clinical","code":"active","display":"active","userSelected":true}]},"category":[{"coding":[{"system":"http://terminology.hl7.org/CodeSystem/condition-category","code":"encounter-diagnosis","display":"Encounter Diagnosis","userSelected":true}]}],"code":{"coding":[{"system":"http://snomed.info/sct","version":"2021-09","code":"102781000119107","display":"Sensory neuropathy due to type 1 diabetes mellitus (disorder)","userSelected":true}]},"subject":{"reference":"Patient/b6ac3dd1-ff55-4152-be9a-153cad2ba2a2"},"onsetDateTime":"2023-11-08T08:00:00.000+00:00"},"request":{"method":"PUT","url":"Condition/diabetes-b8a6"}},{"fullUrl":"https://madie.cms.gov/Encounter/annual-wellness-visit-b8ac","resource":{"resourceType":"Encounter","id":"annual-wellness-visit-b8ac","meta":{"profile":["http://hl7.org/fhir/us/qicore/StructureDefinition/qicore-encounter"]},"status":"finished","class":{"system":"http://terminology.hl7.org/CodeSystem/v3-ActCode","code":"AMB","display":"ambulatory","userSelected":true},"type":[{"coding":[{"system":"http://snomed.info/sct","version":"2021-09","code":"444971000124105","display":"Annual wellness visit (procedure)","userSelected":true}]}],"subject":{"reference":"Patient/b6ac3dd1-ff55-4152-be9a-153cad2ba2a2"},"period":{"start":"2025-03-16T08:00:00.000+00:00","end":"2025-03-16T08:15:00.000+00:00"}},"request":{"method":"PUT","url":"Encounter/annual-wellness-visit-b8ac"}},{"fullUrl":"https://madie.cms.gov/Encounter/palliative-care-encounter-b8ad","resource":{"resourceType":"Encounter","id":"palliative-care-encounter-b8ad","meta":{"profile":["http://hl7.org/fhir/us/qicore/StructureDefinition/qicore-encounter"]},"status":"finished","class":{"system":"http://terminology.hl7.org/CodeSystem/v3-ActCode","code":"AMB","display":"ambulatory","userSelected":true},"type":[{"coding":[{"system":"http://snomed.info/sct","version":"2021-09","code":"305284002","display":"Admission by palliative care physician (procedure)","userSelected":true}]}],"subject":{"reference":"Patient/b6ac3dd1-ff55-4152-be9a-153cad2ba2a2"},"period":{"start":"2025-03-16T08:00:00.000+00:00","end":"2025-03-16T08:15:00.000+00:00"}},"request":{"method":"PUT","url":"Encounter/palliative-care-encounter-b8ad"}},{"fullUrl":"https://madie.cms.gov/MeasureReport/143a3e2d-1ab6-46b6-acd1-07ce0a99566e","resource":{"resourceType":"MeasureReport","id":"143a3e2d-1ab6-46b6-acd1-07ce0a99566e","meta":{"profile":["http://hl7.org/fhir/us/cqfmeasures/StructureDefinition/test-case-cqfm"]},"contained":[{"resourceType":"Parameters","id":"454ceef4-b9ef-4314-92f2-24b95941672d-parameters","parameter":[{"name":"subject","valueString":"b6ac3dd1-ff55-4152-be9a-153cad2ba2a2"}]}],"extension":[{"url":"http://hl7.org/fhir/us/cqfmeasures/StructureDefinition/cqfm-inputParameters","valueReference":{"reference":"#454ceef4-b9ef-4314-92f2-24b95941672d-parameters"}},{"url":"http://hl7.org/fhir/us/cqfmeasures/StructureDefinition/cqfm-testCaseDescription","valueMarkdown":"This patient is 71 years old with a qualifying encounter and active diabetes diagnosis, with a Palliative Care in the Measurement Period. This case tests the denominator exclusion criteria."}],"modifierExtension":[{"url":"http://hl7.org/fhir/us/cqfmeasures/StructureDefinition/cqfm-isTestCase","valueBoolean":true}],"status":"complete","type":"individual","measure":"https://madie.cms.gov/Measure/KidneyHealthEvaluationFHIR","period":{"start":"2025-01-01","end":"2025-12-31"},"group":[{"population":[{"code":{"coding":[{"system":"http://terminology.hl7.org/CodeSystem/measure-population","code":"initial-population","display":"Initial Population"}]},"count":1},{"code":{"coding":[{"system":"http://terminology.hl7.org/CodeSystem/measure-population","code":"denominator","display":"Denominator"}]},"count":1},{"code":{"coding":[{"system":"http://terminology.hl7.org/CodeSystem/measure-population","code":"denominator-exclusion","display":"Denominator Exclusion"}]},"count":1},{"code":{"coding":[{"system":"http://terminology.hl7.org/CodeSystem/measure-population","code":"numerator","display":"Numerator"}]},"count":0}]}],"evaluatedResource":[{"reference":"Patient/b6ac3dd1-ff55-4152-be9a-153cad2ba2a2"},{"reference":"Condition/diabetes-b8a6"},{"reference":"Encounter/annual-wellness-visit-b8ac"},{"reference":"Encounter/palliative-care-encounter-b8ad"}]},"request":{"method":"PUT","url":"MeasureReport/143a3e2d-1ab6-46b6-acd1-07ce0a99566e"}}]}