{"resourceType":"Bundle","id":"tests-5e4e034a-475f-476a-a8f7-cb0d361508ab-bundle","type":"transaction","entry":[{"fullUrl":"https://madie.cms.gov/Patient/5e4e034a-475f-476a-a8f7-cb0d361508ab","resource":{"resourceType":"Patient","id":"5e4e034a-475f-476a-a8f7-cb0d361508ab","meta":{"profile":["http://hl7.org/fhir/us/qicore/StructureDefinition/qicore-patient"]},"extension":[{"url":"http://hl7.org/fhir/us/core/StructureDefinition/us-core-race","extension":[{"url":"ombCategory","valueCoding":{"system":"urn:oid:2.16.840.1.113883.6.238","code":"2076-8","display":"Native Hawaiian or Other Pacific Islander"}},{"url":"text","valueString":"Other Race"}]},{"url":"http://hl7.org/fhir/us/core/StructureDefinition/us-core-ethnicity","extension":[{"url":"ombCategory","valueCoding":{"system":"urn:oid:2.16.840.1.113883.6.238","code":"2135-2","display":"Hispanic or Latino","userSelected":true}},{"url":"text","valueString":"Hispanic or Latino"}]}],"identifier":[{"type":{"coding":[{"system":"http://terminology.hl7.org/CodeSystem/v2-0203","code":"MR"}]},"system":"https://bonnie-fhir.healthit.gov/","value":"60abce8bcd7f9706e4189cfd"}],"name":[{"family":"DENOMPass","given":["ADTActiveAfterCancerDx"]}],"gender":"male","birthDate":"1949-07-09"},"request":{"method":"PUT","url":"Patient/5e4e034a-475f-476a-a8f7-cb0d361508ab"}},{"fullUrl":"https://madie.cms.gov/Encounter/enc-zd6313d21312","resource":{"resourceType":"Encounter","id":"zd6313d21312","meta":{"profile":["http://hl7.org/fhir/us/qicore/StructureDefinition/qicore-encounter"]},"status":"finished","class":{"system":"http://terminology.hl7.org/CodeSystem/v3-ActCode","code":"AMB","display":"ambulatory"},"type":[{"coding":[{"system":"http://snomed.info/sct","version":"2022-09","code":"185463005","display":"Visit out of hours (procedure)"}]}],"subject":{"reference":"Patient/5e4e034a-475f-476a-a8f7-cb0d361508ab"},"period":{"start":"2025-02-03T08:00:00+00:00","end":"2025-02-03T08:45:00+00:00"}},"request":{"method":"PUT","url":"Encounter/zd6313d21312"}},{"fullUrl":"https://madie.cms.gov/Condition/con-321321215","resource":{"resourceType":"Condition","id":"321321215","meta":{"profile":["http://hl7.org/fhir/us/qicore/StructureDefinition/qicore-condition"]},"clinicalStatus":{"coding":[{"system":"http://terminology.hl7.org/CodeSystem/condition-clinical","code":"active"}]},"verificationStatus":{"coding":[{"system":"http://terminology.hl7.org/CodeSystem/condition-ver-status","code":"confirmed"}]},"category":[{"coding":[{"system":"http://terminology.hl7.org/CodeSystem/condition-category","code":"problem-list-item","display":"Problem List Item"}]}],"code":{"coding":[{"system":"http://snomed.info/sct","version":"2022-09","code":"254900004","display":"Carcinoma of prostate (disorder)"}]},"subject":{"reference":"Patient/5e4e034a-475f-476a-a8f7-cb0d361508ab"},"onsetPeriod":{"start":"2025-01-03T08:00:00.000+00:00"}},"request":{"method":"PUT","url":"Condition/321321215"}},{"fullUrl":"https://madie.cms.gov/MedicationRequest/54112321","resource":{"resourceType":"MedicationRequest","id":"54112321","meta":{"profile":["http://hl7.org/fhir/us/qicore/StructureDefinition/qicore-medicationrequest"]},"status":"active","intent":"order","doNotPerform":false,"medicationCodeableConcept":{"coding":[{"system":"http://www.nlm.nih.gov/research/umls/rxnorm","version":"2025-01","code":"314008","display":"goserelin 10.8 MG Drug Implant"}]},"subject":{"reference":"Patient/5e4e034a-475f-476a-a8f7-cb0d361508ab"},"authoredOn":"2025-02-01T08:00:00.000+00:00","requester":{"reference":"http://myGoodHealthcare.com/fhir/Practitioner/prac-646346"},"dosageInstruction":[{"timing":{"repeat":{"boundsPeriod":{"start":"2025-02-03T08:00:00.000+00:00","end":"2025-03-03T09:00:00.000+00:00"}}}}]},"request":{"method":"PUT","url":"MedicationRequest/54112321"}},{"fullUrl":"https://madie.cms.gov/Practitioner/prac-646346","resource":{"resourceType":"Practitioner","id":"646346","meta":{"profile":["http://hl7.org/fhir/us/qicore/StructureDefinition/qicore-practitioner"]},"identifier":[{"use":"temp","system":"urn:oid:2.16.840.1.113883.4.336","value":"Practitioner-23"}],"active":true,"name":[{"family":"Careful","given":["Adam"],"prefix":["Dr"]}],"address":[{"use":"home","line":["534 Erewhon St"],"city":"PleasantVille","state":"UT","postalCode":"84414"}],"qualification":[{"identifier":[{"system":"http://example.org/UniversityIdentifier","value":"12345"}],"code":{"coding":[{"system":"http://terminology.hl7.org/CodeSystem/v2-0360|2.7","code":"BS","display":"Bachelor of Science"}],"text":"Bachelor of Science"},"period":{"start":"1995"},"issuer":{"display":"Example University"}}]},"request":{"method":"PUT","url":"Practitioner/646346"}},{"fullUrl":"https://madie.cms.gov/ServiceRequest/3213214575","resource":{"resourceType":"ServiceRequest","id":"3213214575","meta":{"profile":["http://hl7.org/fhir/us/qicore/StructureDefinition/qicore-servicerequest"]},"status":"active","intent":"order","code":{"coding":[{"system":"http://snomed.info/sct","code":"456381000124102","display":"Injection of leuprolide acetate for twelve month period (regime/therapy)"}]},"subject":{"reference":"Patient/5e4e034a-475f-476a-a8f7-cb0d361508ab"},"authoredOn":"2025-02-03T08:00:00.000+00:00"},"request":{"method":"PUT","url":"ServiceRequest/3213214575"}},{"fullUrl":"https://madie.cms.gov/MeasureReport/827fab2c-ffee-4659-93a9-5cca25bfd18a","resource":{"resourceType":"MeasureReport","id":"827fab2c-ffee-4659-93a9-5cca25bfd18a","meta":{"profile":["http://hl7.org/fhir/us/cqfmeasures/StructureDefinition/test-case-cqfm"]},"contained":[{"resourceType":"Parameters","id":"ee14c044-da4a-47a3-bdfb-1798bc8a1142-parameters","parameter":[{"name":"subject","valueString":"5e4e034a-475f-476a-a8f7-cb0d361508ab"}]}],"extension":[{"url":"http://hl7.org/fhir/us/cqfmeasures/StructureDefinition/cqfm-inputParameters","valueReference":{"reference":"#ee14c044-da4a-47a3-bdfb-1798bc8a1142-parameters"}},{"url":"http://hl7.org/fhir/us/cqfmeasures/StructureDefinition/cqfm-testCaseDescription","valueMarkdown":"Dx of Prostate Cancer, and Androgen deprivation therapy for Urology Care is not null. Passes IPP and Denom with no end date of diagnosis which is usual for Prostate Cancer not ending-clinically relevant."}],"modifierExtension":[{"url":"http://hl7.org/fhir/us/cqfmeasures/StructureDefinition/cqfm-isTestCase","valueBoolean":true}],"status":"complete","type":"individual","measure":"https://madie.cms.gov/Measure/BoneDensityProstateCancerAndrogenDeprivationTherapyFHIR","period":{"start":"2025-01-01","end":"2025-12-31"},"group":[{"population":[{"code":{"coding":[{"system":"http://terminology.hl7.org/CodeSystem/measure-population","code":"initial-population","display":"Initial Population"}]},"count":1},{"code":{"coding":[{"system":"http://terminology.hl7.org/CodeSystem/measure-population","code":"denominator","display":"Denominator"}]},"count":1},{"code":{"coding":[{"system":"http://terminology.hl7.org/CodeSystem/measure-population","code":"numerator","display":"Numerator"}]},"count":0},{"code":{"coding":[{"system":"http://terminology.hl7.org/CodeSystem/measure-population","code":"denominator-exception","display":"Denominator Exception"}]},"count":0}]}],"evaluatedResource":[{"reference":"Patient/5e4e034a-475f-476a-a8f7-cb0d361508ab"},{"reference":"Encounter/enc-zd6313d21312"},{"reference":"Condition/con-321321215"},{"reference":"MedicationRequest/54112321"},{"reference":"Practitioner/prac-646346"},{"reference":"ServiceRequest/3213214575"}]},"request":{"method":"PUT","url":"MeasureReport/827fab2c-ffee-4659-93a9-5cca25bfd18a"}}]}