{
  "resourceType": "Bundle",
  "id": "tests-878aa680-2642-45b8-b103-5ef96188b5ea-bundle",
  "type": "transaction",
  "entry": [
    {
      "fullUrl": "https://madie.cms.gov/Patient/878aa680-2642-45b8-b103-5ef96188b5ea",
      "resource": {
        "resourceType": "Patient",
        "id": "878aa680-2642-45b8-b103-5ef96188b5ea",
        "meta": {
          "profile": [
            "http://hl7.org/fhir/us/qicore/StructureDefinition/qicore-patient"
          ]
        },
        "extension": [
          {
            "url": "http://hl7.org/fhir/us/core/StructureDefinition/us-core-race",
            "extension": [
              {
                "url": "ombCategory",
                "valueCoding": {
                  "system": "urn:oid:2.16.840.1.113883.6.238",
                  "code": "2054-5",
                  "display": "Black or African American",
                  "userSelected": true
                }
              },
              {
                "url": "text",
                "valueString": "Black or African American"
              }
            ]
          },
          {
            "url": "http://hl7.org/fhir/us/core/StructureDefinition/us-core-ethnicity",
            "extension": [
              {
                "url": "ombCategory",
                "valueCoding": {
                  "system": "urn:oid:2.16.840.1.113883.6.238",
                  "code": "2186-5",
                  "display": "Not Hispanic or Latino",
                  "userSelected": true
                }
              },
              {
                "url": "text",
                "valueString": "Not Hispanic or Latino"
              }
            ]
          }
        ],
        "identifier": [
          {
            "type": {
              "coding": [
                {
                  "system": "http://terminology.hl7.org/CodeSystem/v2-0203",
                  "code": "MR"
                }
              ]
            },
            "system": "https://bonnie-fhir.healthit.gov/",
            "value": "60abda28bf0a01003e3f76bd"
          }
        ],
        "name": [
          {
            "family": "NUMERPass",
            "given": [
              "DEXA3MonthsAfterADTEdge"
            ]
          }
        ],
        "gender": "male",
        "birthDate": "1929-06-15"
      },
      "request": {
        "method": "PUT",
        "url": "Patient/878aa680-2642-45b8-b103-5ef96188b5ea"
      }
    },
    {
      "fullUrl": "https://madie.cms.gov/Encounter/enc-98965313",
      "resource": {
        "resourceType": "Encounter",
        "id": "98965313",
        "meta": {
          "profile": [
            "http://hl7.org/fhir/us/qicore/StructureDefinition/qicore-encounter"
          ]
        },
        "status": "finished",
        "class": {
          "system": "http://terminology.hl7.org/CodeSystem/v3-ActCode",
          "code": "AMB",
          "display": "ambulatory"
        },
        "type": [
          {
            "coding": [
              {
                "system": "http://snomed.info/sct",
                "version": "2021-09",
                "code": "185463005",
                "display": "Visit out of hours (procedure)",
                "userSelected": true
              }
            ]
          }
        ],
        "subject": {
          "reference": "Patient/878aa680-2642-45b8-b103-5ef96188b5ea"
        },
        "period": {
          "start": "2025-05-01T08:00:00.000+00:00",
          "end": "2025-05-01T08:15:00.000+00:00"
        }
      },
      "request": {
        "method": "PUT",
        "url": "Encounter/enc-98965313"
      }
    },
    {
      "fullUrl": "https://madie.cms.gov/Condition/con-35463463113",
      "resource": {
        "resourceType": "Condition",
        "id": "35463463113",
        "meta": {
          "profile": [
            "http://hl7.org/fhir/us/qicore/StructureDefinition/qicore-condition"
          ]
        },
        "clinicalStatus": {
          "coding": [
            {
              "system": "http://terminology.hl7.org/CodeSystem/condition-clinical",
              "code": "active",
              "display": "Active",
              "userSelected": true
            }
          ]
        },
        "verificationStatus": {
          "coding": [
            {
              "system": "http://terminology.hl7.org/CodeSystem/condition-ver-status",
              "code": "confirmed"
            }
          ]
        },
        "category": [
          {
            "coding": [
              {
                "system": "http://terminology.hl7.org/CodeSystem/condition-category",
                "code": "problem-list-item",
                "display": "Problem List Item"
              }
            ]
          }
        ],
        "code": {
          "coding": [
            {
              "system": "http://snomed.info/sct",
              "version": "2021-09",
              "code": "254900004",
              "display": "Carcinoma of prostate (disorder)",
              "userSelected": true
            }
          ]
        },
        "subject": {
          "reference": "Patient/878aa680-2642-45b8-b103-5ef96188b5ea"
        },
        "onsetPeriod": {
          "start": "2025-04-04T08:00:00.000+00:00"
        }
      },
      "request": {
        "method": "PUT",
        "url": "Condition/con-35463463113"
      }
    },
    {
      "fullUrl": "https://madie.cms.gov/Observation/obs-1313113",
      "resource": {
        "resourceType": "Observation",
        "id": "1313113",
        "meta": {
          "profile": [
            "http://hl7.org/fhir/us/qicore/StructureDefinition/qicore-observation"
          ]
        },
        "status": "final",
        "category": [
          {
            "coding": [
              {
                "system": "http://terminology.hl7.org/CodeSystem/observation-category",
                "code": "imaging",
                "display": "Imaging"
              }
            ]
          }
        ],
        "code": {
          "coding": [
            {
              "system": "http://loinc.org",
              "version": "2.69",
              "code": "38265-5",
              "display": "DXA Radius and Ulna [T-score] Bone density",
              "userSelected": true
            }
          ]
        },
        "subject": {
          "reference": "Patient/878aa680-2642-45b8-b103-5ef96188b5ea"
        },
        "effectivePeriod": {
          "start": "2025-08-02T08:00:00.000+00:00"
        }
      },
      "request": {
        "method": "PUT",
        "url": "Observation/obs-1313113"
      }
    },
    {
      "fullUrl": "https://madie.cms.gov/Practitioner/prac-646346",
      "resource": {
        "resourceType": "Practitioner",
        "id": "646346",
        "meta": {
          "profile": [
            "http://hl7.org/fhir/us/qicore/StructureDefinition/qicore-practitioner"
          ]
        },
        "identifier": [
          {
            "use": "temp",
            "system": "urn:oid:2.16.840.1.113883.4.336",
            "value": "Practitioner-23"
          }
        ],
        "active": true,
        "name": [
          {
            "family": "Careful",
            "given": [
              "Adam"
            ],
            "prefix": [
              "Dr"
            ]
          }
        ],
        "address": [
          {
            "use": "home",
            "line": [
              "534 Erewhon St"
            ],
            "city": "PleasantVille",
            "state": "UT",
            "postalCode": "84414"
          }
        ],
        "qualification": [
          {
            "identifier": [
              {
                "system": "http://example.org/UniversityIdentifier",
                "value": "12345"
              }
            ],
            "code": {
              "coding": [
                {
                  "system": "http://terminology.hl7.org/CodeSystem/v2-0360|2.7",
                  "code": "BS",
                  "display": "Bachelor of Science"
                }
              ],
              "text": "Bachelor of Science"
            },
            "period": {
              "start": "1995"
            },
            "issuer": {
              "display": "Example University"
            }
          }
        ]
      },
      "request": {
        "method": "PUT",
        "url": "Practitioner/prac-646346"
      }
    },
    {
      "fullUrl": "https://madie.cms.gov/MedicationRequest/medreq-64564646",
      "resource": {
        "resourceType": "MedicationRequest",
        "id": "64564646",
        "meta": {
          "profile": [
            "http://hl7.org/fhir/us/qicore/StructureDefinition/qicore-medicationrequest"
          ]
        },
        "status": "active",
        "intent": "order",
        "medicationCodeableConcept": {
          "coding": [
            {
              "system": "http://www.nlm.nih.gov/research/umls/rxnorm",
              "code": "1115257",
              "display": "1.5 ML leuprolide acetate 30 MG/ML Prefilled Syringe",
              "userSelected": true
            }
          ]
        },
        "subject": {
          "reference": "Patient/878aa680-2642-45b8-b103-5ef96188b5ea"
        },
        "authoredOn": "2025-05-01T08:00:00.000+00:00",
        "requester": {
          "reference": "http://myGoodHealthcare.com/fhir/Practitioner/prac-646346"
        },
        "dosageInstruction": [
          {
            "timing": {
              "repeat": {
                "boundsPeriod": {
                  "start": "2025-05-01T08:00:00.000+00:00",
                  "end": "2025-06-01T08:00:00.000+00:00"
                }
              }
            }
          }
        ]
      },
      "request": {
        "method": "PUT",
        "url": "MedicationRequest/medreq-64564646"
      }
    },
    {
      "fullUrl": "https://madie.cms.gov/ServiceRequest/sreq-764645645",
      "resource": {
        "resourceType": "ServiceRequest",
        "id": "764645645",
        "meta": {
          "profile": [
            "http://hl7.org/fhir/us/qicore/StructureDefinition/qicore-servicerequest"
          ]
        },
        "status": "active",
        "intent": "order",
        "code": {
          "coding": [
            {
              "system": "http://snomed.info/sct",
              "code": "456381000124102",
              "display": "Injection of leuprolide acetate for twelve month period (regime/therapy)",
              "userSelected": true
            }
          ]
        },
        "subject": {
          "reference": "Patient/878aa680-2642-45b8-b103-5ef96188b5ea"
        },
        "authoredOn": "2025-05-01T08:00:00.000+00:00"
      },
      "request": {
        "method": "PUT",
        "url": "ServiceRequest/sreq-764645645"
      }
    },
    {
      "fullUrl": "https://madie.cms.gov/MeasureReport/e89fbb8b-8545-4c1f-89b1-f35caaba9786",
      "resource": {
        "resourceType": "MeasureReport",
        "id": "e89fbb8b-8545-4c1f-89b1-f35caaba9786",
        "meta": {
          "profile": [
            "http://hl7.org/fhir/us/cqfmeasures/StructureDefinition/test-case-cqfm"
          ]
        },
        "contained": [
          {
            "resourceType": "Parameters",
            "id": "fb3a86b9-bf9d-49d9-8815-823f45ad4d7e-parameters",
            "parameter": [
              {
                "name": "subject",
                "valueString": "878aa680-2642-45b8-b103-5ef96188b5ea"
              }
            ]
          }
        ],
        "extension": [
          {
            "url": "http://hl7.org/fhir/us/cqfmeasures/StructureDefinition/cqfm-inputParameters",
            "valueReference": {
              "reference": "#fb3a86b9-bf9d-49d9-8815-823f45ad4d7e-parameters"
            }
          },
          {
            "url": "http://hl7.org/fhir/us/cqfmeasures/StructureDefinition/cqfm-testCaseDescription",
            "valueMarkdown": "Dx of Prostate Cancer, and qualifying encounter(s) in MP, However, DEXA 3 mo and 1 day after ADT.  Fails NUMER Criteria"
          }
        ],
        "modifierExtension": [
          {
            "url": "http://hl7.org/fhir/us/cqfmeasures/StructureDefinition/cqfm-isTestCase",
            "valueBoolean": true
          }
        ],
        "status": "complete",
        "type": "individual",
        "measure": "https://madie.cms.gov/Measure/BoneDensityProstateCancerAndrogenDeprivationTherapyFHIR",
        "period": {
          "start": "2025-01-01",
          "end": "2025-12-31"
        },
        "group": [
          {
            "population": [
              {
                "code": {
                  "coding": [
                    {
                      "system": "http://terminology.hl7.org/CodeSystem/measure-population",
                      "code": "initial-population",
                      "display": "Initial Population"
                    }
                  ]
                },
                "count": 1
              },
              {
                "code": {
                  "coding": [
                    {
                      "system": "http://terminology.hl7.org/CodeSystem/measure-population",
                      "code": "denominator",
                      "display": "Denominator"
                    }
                  ]
                },
                "count": 1
              },
              {
                "code": {
                  "coding": [
                    {
                      "system": "http://terminology.hl7.org/CodeSystem/measure-population",
                      "code": "numerator",
                      "display": "Numerator"
                    }
                  ]
                },
                "count": 0
              },
              {
                "code": {
                  "coding": [
                    {
                      "system": "http://terminology.hl7.org/CodeSystem/measure-population",
                      "code": "denominator-exception",
                      "display": "Denominator Exception"
                    }
                  ]
                },
                "count": 0
              }
            ]
          }
        ],
        "evaluatedResource": [
          {
            "reference": "Patient/878aa680-2642-45b8-b103-5ef96188b5ea"
          },
          {
            "reference": "Encounter/enc-98965313"
          },
          {
            "reference": "Condition/con-35463463113"
          },
          {
            "reference": "Observation/1313113"
          },
          {
            "reference": "Practitioner/prac-646346"
          },
          {
            "reference": "MedicationRequest/64564646"
          },
          {
            "reference": "ServiceRequest/764645645"
          }
        ]
      },
      "request": {
        "method": "PUT",
        "url": "MeasureReport/e89fbb8b-8545-4c1f-89b1-f35caaba9786"
      }
    }
  ]
}
