{"resourceType":"Bundle","id":"tests-f3f9227e-50eb-4752-af8a-464072cc60c2-bundle","type":"transaction","entry":[{"fullUrl":"https://madie.cms.gov/Patient/f3f9227e-50eb-4752-af8a-464072cc60c2","resource":{"resourceType":"Patient","id":"f3f9227e-50eb-4752-af8a-464072cc60c2","meta":{"profile":["http://hl7.org/fhir/us/qicore/StructureDefinition/qicore-patient"]},"extension":[{"url":"http://hl7.org/fhir/us/core/StructureDefinition/us-core-race","extension":[{"url":"ombCategory","valueCoding":{"system":"urn:oid:2.16.840.1.113883.6.238","code":"2054-5","display":"Black or African American"}},{"url":"text","valueString":"Black or African American"}]},{"url":"http://hl7.org/fhir/us/core/StructureDefinition/us-core-ethnicity","extension":[{"url":"ombCategory","valueCoding":{"system":"urn:oid:2.16.840.1.113883.6.238","code":"2186-5","display":"Not Hispanic or Latino"}},{"url":"text","valueString":"Not Hispanic or Latino"}]}],"identifier":[{"type":{"coding":[{"system":"http://terminology.hl7.org/CodeSystem/v2-0203","code":"MR"}]},"system":"https://bonnie-fhir.healthit.gov/","value":"463131313187656"}],"name":[{"family":"NUMERPass","given":["ADT9MonthsAfterStartofMPEdge"]}],"gender":"male","birthDate":"1929-06-15"},"request":{"method":"PUT","url":"Patient/f3f9227e-50eb-4752-af8a-464072cc60c2"}},{"fullUrl":"https://madie.cms.gov/Encounter/enc-98965313","resource":{"resourceType":"Encounter","id":"enc-98965313","meta":{"profile":["http://hl7.org/fhir/us/qicore/StructureDefinition/qicore-encounter"]},"status":"finished","class":{"system":"http://terminology.hl7.org/CodeSystem/v3-ActCode","code":"AMB","display":"ambulatory"},"type":[{"coding":[{"system":"http://snomed.info/sct","version":"http://snomed.info/sct/731000124108/version/202303","code":"185463005","display":"Visit out of hours (procedure)"}]}],"subject":{"reference":"Patient/f3f9227e-50eb-4752-af8a-464072cc60c2"},"period":{"start":"2025-09-01T08:00:00.000+00:00","end":"2025-09-01T08:15:00.000+00:00"}},"request":{"method":"PUT","url":"Encounter/enc-98965313"}},{"fullUrl":"https://madie.cms.gov/Condition/con-35463463113","resource":{"resourceType":"Condition","id":"con-35463463113","meta":{"profile":["http://hl7.org/fhir/us/qicore/StructureDefinition/qicore-condition"]},"clinicalStatus":{"coding":[{"system":"http://terminology.hl7.org/CodeSystem/condition-clinical","code":"active","display":"Active","userSelected":true}]},"verificationStatus":{"coding":[{"system":"http://terminology.hl7.org/CodeSystem/condition-ver-status","code":"confirmed"}]},"category":[{"coding":[{"system":"http://terminology.hl7.org/CodeSystem/condition-category","code":"problem-list-item","display":"Problem List Item"}]}],"code":{"coding":[{"system":"http://snomed.info/sct","version":"http://snomed.info/sct/731000124108/version/202303","code":"254900004","display":"Carcinoma of prostate (disorder)"}]},"subject":{"reference":"Patient/f3f9227e-50eb-4752-af8a-464072cc60c2"},"onsetPeriod":{"start":"2025-09-01T08:00:00.000+00:00"}},"request":{"method":"PUT","url":"Condition/con-35463463113"}},{"fullUrl":"https://madie.cms.gov/Observation/obs-1313113","resource":{"resourceType":"Observation","id":"obs-1313113","meta":{"profile":["http://hl7.org/fhir/us/qicore/StructureDefinition/qicore-observation"]},"status":"final","category":[{"coding":[{"system":"http://terminology.hl7.org/CodeSystem/observation-category","code":"imaging","display":"Imaging"}]}],"code":{"coding":[{"system":"http://loinc.org","version":"2.73","code":"38265-5","display":"DXA Radius and Ulna [T-score] Bone density"}]},"subject":{"reference":"Patient/f3f9227e-50eb-4752-af8a-464072cc60c2"},"effectivePeriod":{"start":"2025-12-30T10:00:00.000+00:00"}},"request":{"method":"PUT","url":"Observation/obs-1313113"}},{"fullUrl":"https://madie.cms.gov/Practitioner/prac-646346","resource":{"resourceType":"Practitioner","id":"prac-646346","meta":{"profile":["http://hl7.org/fhir/us/qicore/StructureDefinition/qicore-practitioner"]},"identifier":[{"use":"temp","system":"urn:oid:2.16.840.1.113883.4.336","value":"Practitioner-23"}],"active":true,"name":[{"family":"Careful","given":["Adam"],"prefix":["Dr"]}],"address":[{"use":"home","line":["534 Erewhon St"],"city":"PleasantVille","state":"UT","postalCode":"84414"}],"qualification":[{"identifier":[{"system":"http://example.org/UniversityIdentifier","value":"12345"}],"code":{"coding":[{"system":"http://terminology.hl7.org/CodeSystem/v2-0360|2.7","code":"BS","display":"Bachelor of Science"}],"text":"Bachelor of Science"},"period":{"start":"1995"},"issuer":{"display":"Example University"}}]},"request":{"method":"PUT","url":"Practitioner/prac-646346"}},{"fullUrl":"https://madie.cms.gov/MedicationRequest/medreq-64564646","resource":{"resourceType":"MedicationRequest","id":"medreq-64564646","meta":{"profile":["http://hl7.org/fhir/us/qicore/StructureDefinition/qicore-medicationrequest"]},"status":"active","intent":"order","medicationCodeableConcept":{"coding":[{"system":"http://www.nlm.nih.gov/research/umls/rxnorm","version":"02062023","code":"1115257","display":"1.5 ML leuprolide acetate 30 MG/ML Prefilled Syringe"}]},"subject":{"reference":"Patient/f3f9227e-50eb-4752-af8a-464072cc60c2"},"authoredOn":"2025-09-29T08:00:00.000+00:00","requester":{"reference":"http://myGoodHealthcare.com/fhir/Practitioner/prac-646346"},"dosageInstruction":[{"timing":{"repeat":{"boundsPeriod":{"start":"2025-09-30T08:00:00.000+00:00"}}}}]},"request":{"method":"PUT","url":"MedicationRequest/medreq-64564646"}},{"fullUrl":"https://madie.cms.gov/ServiceRequest/sreq-764645645","resource":{"resourceType":"ServiceRequest","id":"sreq-764645645","meta":{"profile":["http://hl7.org/fhir/us/qicore/StructureDefinition/qicore-servicerequest"]},"status":"active","intent":"order","code":{"coding":[{"system":"http://snomed.info/sct","version":"http://snomed.info/sct/731000124108/version/202303","code":"456381000124102","display":"Injection of leuprolide acetate for twelve month period (regime/therapy)"}]},"subject":{"reference":"Patient/f3f9227e-50eb-4752-af8a-464072cc60c2"},"authoredOn":"2025-09-30T08:00:00.000+00:00"},"request":{"method":"PUT","url":"ServiceRequest/sreq-764645645"}},{"fullUrl":"https://madie.cms.gov/MeasureReport/cfe6198d-8c71-4375-b38f-8037ba1c0455","resource":{"resourceType":"MeasureReport","id":"cfe6198d-8c71-4375-b38f-8037ba1c0455","meta":{"profile":["http://hl7.org/fhir/us/cqfmeasures/StructureDefinition/test-case-cqfm"]},"contained":[{"resourceType":"Parameters","id":"7ebb0e0d-7602-407c-a124-a345dec45969-parameters","parameter":[{"name":"subject","valueString":"f3f9227e-50eb-4752-af8a-464072cc60c2"}]}],"extension":[{"url":"http://hl7.org/fhir/us/cqfmeasures/StructureDefinition/cqfm-inputParameters","valueReference":{"reference":"#7ebb0e0d-7602-407c-a124-a345dec45969-parameters"}},{"url":"http://hl7.org/fhir/us/cqfmeasures/StructureDefinition/cqfm-testCaseDescription","valueMarkdown":"Encounter Office Visit in MP.  Dx Prostate Cancer in MP. ADT on 9/30, DEXA on on 12/30 to test timing.  NUMER Criteria Pass"}],"modifierExtension":[{"url":"http://hl7.org/fhir/us/cqfmeasures/StructureDefinition/cqfm-isTestCase","valueBoolean":true}],"status":"complete","type":"individual","measure":"https://madie.cms.gov/Measure/BoneDensityProstateCancerAndrogenDeprivationTherapyFHIR","period":{"start":"2025-01-01","end":"2025-12-31"},"group":[{"population":[{"code":{"coding":[{"system":"http://terminology.hl7.org/CodeSystem/measure-population","code":"initial-population","display":"Initial Population"}]},"count":1},{"code":{"coding":[{"system":"http://terminology.hl7.org/CodeSystem/measure-population","code":"denominator","display":"Denominator"}]},"count":1},{"code":{"coding":[{"system":"http://terminology.hl7.org/CodeSystem/measure-population","code":"numerator","display":"Numerator"}]},"count":1},{"code":{"coding":[{"system":"http://terminology.hl7.org/CodeSystem/measure-population","code":"denominator-exception","display":"Denominator Exception"}]},"count":0}]}],"evaluatedResource":[{"reference":"Patient/f3f9227e-50eb-4752-af8a-464072cc60c2"},{"reference":"Encounter/enc-98965313"},{"reference":"Condition/con-35463463113"},{"reference":"Observation/obs-1313113"},{"reference":"Practitioner/prac-646346"},{"reference":"MedicationRequest/medreq-64564646"},{"reference":"ServiceRequest/sreq-764645645"}]},"request":{"method":"PUT","url":"MeasureReport/cfe6198d-8c71-4375-b38f-8037ba1c0455"}}]}