{
  "resourceType": "Bundle",
  "id": "Patient-10-DENEXPass-FrailtyDeviceUsed",
  "type": "transaction",
  "entry": [ {
    "fullUrl": "https://madie.cms.gov/Patient/cade5021-b1bf-43e9-a0a4-659c05b386d0",
    "resource": {
      "resourceType": "Patient",
      "id": "cade5021-b1bf-43e9-a0a4-659c05b386d0",
      "meta": {
        "profile": [ "http://hl7.org/fhir/us/qicore/StructureDefinition/qicore-patient" ]
      },
      "extension": [ {
        "url": "http://hl7.org/fhir/us/core/StructureDefinition/us-core-race",
        "extension": [ {
          "url": "ombCategory",
          "valueCoding": {
            "system": "urn:oid:2.16.840.1.113883.6.238",
            "code": "2028-9",
            "display": "Asian"
          }
        }, {
          "url": "text",
          "valueString": "Asian"
        } ]
      }, {
        "url": "http://hl7.org/fhir/us/core/StructureDefinition/us-core-ethnicity",
        "extension": [ {
          "url": "ombCategory",
          "valueCoding": {
            "system": "urn:oid:2.16.840.1.113883.6.238",
            "code": "2135-2",
            "display": "Hispanic or Latino"
          }
        }, {
          "url": "text",
          "valueString": "Hispanic or Latino"
        } ]
      } ],
      "identifier": [ {
        "system": "http://hospital.smarthealthit.org",
        "value": "999999995"
      } ],
      "name": [ {
        "family": "Bertha",
        "given": [ "Betty" ]
      } ],
      "gender": "female",
      "birthDate": "1958-12-31"
    },
    "request": {
      "method": "PUT",
      "url": "Patient/cade5021-b1bf-43e9-a0a4-659c05b386d0"
    }
  }, {
    "fullUrl": "https://madie.cms.gov/Encounter/Encounter-15",
    "resource": {
      "resourceType": "Encounter",
      "id": "Encounter-15",
      "meta": {
        "profile": [ "http://hl7.org/fhir/us/qicore/StructureDefinition/qicore-encounter" ]
      },
      "status": "finished",
      "class": {
        "system": "http://terminology.hl7.org/CodeSystem/v3-ActCode",
        "code": "AMB",
        "display": "ambulatory"
      },
      "type": [ {
        "coding": [ {
          "system": "http://snomed.info/sct",
          "code": "185460008",
          "display": "Home visit request by patient (procedure)"
        } ]
      } ],
      "subject": {
        "reference": "Patient/cade5021-b1bf-43e9-a0a4-659c05b386d0"
      },
      "period": {
        "start": "2025-01-01T00:00:00.000Z",
        "end": "2025-01-01T00:15:00.000Z"
      }
    },
    "request": {
      "method": "PUT",
      "url": "Encounter/Encounter-15"
    }
  }, {
    "fullUrl": "https://madie.cms.gov/Condition/Condition-12",
    "resource": {
      "resourceType": "Condition",
      "id": "Condition-12",
      "meta": {
        "profile": [ "http://hl7.org/fhir/us/qicore/StructureDefinition/qicore-condition" ]
      },
      "clinicalStatus": {
        "coding": [ {
          "system": "http://terminology.hl7.org/CodeSystem/condition-clinical",
          "code": "active"
        } ]
      },
      "category": [ {
        "coding": [ {
          "system": "http://terminology.hl7.org/CodeSystem/condition-category",
          "code": "problem-list-item",
          "display": "Problem List Item"
        } ]
      } ],
      "code": {
        "coding": [ {
          "system": "http://snomed.info/sct",
          "code": "102781000119107",
          "display": "Sensory neuropathy due to type 1 diabetes mellitus (disorder)"
        } ]
      },
      "subject": {
        "reference": "Patient/cade5021-b1bf-43e9-a0a4-659c05b386d0"
      },
      "onsetDateTime": "2025-01-01T23:59:00.000Z"
    },
    "request": {
      "method": "PUT",
      "url": "Condition/Condition-12"
    }
  }, {
    "fullUrl": "https://madie.cms.gov/MedicationRequest/MedicationRequest-1",
    "resource": {
      "resourceType": "MedicationRequest",
      "id": "MedicationRequest-1",
      "meta": {
        "profile": [ "http://hl7.org/fhir/us/qicore/StructureDefinition/qicore-medicationrequest" ]
      },
      "status": "active",
      "intent": "order",
      "doNotPerform": false,
      "medicationCodeableConcept": {
        "coding": [ {
          "system": "http://www.nlm.nih.gov/research/umls/rxnorm",
          "code": "312836",
          "display": "rivastigmine 6 MG Oral Capsule"
        } ]
      },
      "subject": {
        "reference": "Patient/cade5021-b1bf-43e9-a0a4-659c05b386d0"
      },
      "authoredOn": "2025-01-01T00:00:00.000Z",
      "requester": {
        "reference": "Practitioner/example"
      },
      "dispenseRequest": {
        "expectedSupplyDuration": {
          "value": 90,
          "system": "http://unitsofmeasure.org",
          "code": "days"
        }
      }
    },
    "request": {
      "method": "PUT",
      "url": "MedicationRequest/MedicationRequest-1"
    }
  }, {
    "fullUrl": "https://madie.cms.gov/Observation/Observation-1",
    "resource": {
      "resourceType": "Observation",
      "id": "Observation-1",
      "meta": {
        "profile": [ "http://hl7.org/fhir/us/qicore/StructureDefinition/qicore-observation" ]
      },
      "status": "final",
      "category": [ {
        "coding": [ {
          "system": "http://terminology.hl7.org/CodeSystem/observation-category",
          "code": "survey"
        } ]
      } ],
      "code": {
        "coding": [ {
          "system": "http://loinc.org",
          "code": "98181-1",
          "display": "Medical equipment used"
        } ]
      },
      "subject": {
        "reference": "Patient/cade5021-b1bf-43e9-a0a4-659c05b386d0"
      },
      "effectivePeriod": {
        "start": "2025-01-01T00:00:00.000Z",
        "end": "2025-01-01T01:00:00.000Z"
      },
      "valueCodeableConcept": {
        "coding": [ {
          "system": "http://snomed.info/sct",
          "code": "262177002",
          "display": "Static oxygen cylinder (physical object)"
        } ]
      }
    },
    "request": {
      "method": "PUT",
      "url": "Observation/Observation-1"
    }
  }, {
    "fullUrl": "https://madie.cms.gov/MeasureReport/89c77ae8-2360-4bac-a5b1-52285e9a082a",
    "resource": {
      "resourceType": "MeasureReport",
      "id": "89c77ae8-2360-4bac-a5b1-52285e9a082a",
      "meta": {
        "profile": [ "http://hl7.org/fhir/us/cqfmeasures/StructureDefinition/test-case-cqfm" ]
      },
      "contained": [ {
        "resourceType": "Parameters",
        "id": "25f0536c-92da-470a-8218-68804a5d98f5-parameters",
        "parameter": [ {
          "name": "subject",
          "valueString": "cade5021-b1bf-43e9-a0a4-659c05b386d0"
        } ]
      } ],
      "extension": [ {
        "url": "http://hl7.org/fhir/us/cqfmeasures/StructureDefinition/cqfm-inputParameters",
        "valueReference": {
          "reference": "#25f0536c-92da-470a-8218-68804a5d98f5-parameters"
        }
      }, {
        "url": "http://hl7.org/fhir/us/cqfmeasures/StructureDefinition/cqfm-testCaseDescription",
        "valueMarkdown": "Frailty device used"
      } ],
      "modifierExtension": [ {
        "url": "http://hl7.org/fhir/us/cqfmeasures/StructureDefinition/cqfm-isTestCase",
        "valueBoolean": true
      } ],
      "status": "complete",
      "type": "individual",
      "measure": "https://madie.cms.gov/Measure/DiabetesHemoglobinA1cHbA1cPoorControl9FHIR",
      "period": {
        "start": "2025-01-01",
        "end": "2025-12-31"
      },
      "group": [ {
        "population": [ {
          "code": {
            "coding": [ {
              "system": "http://terminology.hl7.org/CodeSystem/measure-population",
              "code": "initial-population",
              "display": "Initial Population"
            } ]
          },
          "count": 1
        }, {
          "code": {
            "coding": [ {
              "system": "http://terminology.hl7.org/CodeSystem/measure-population",
              "code": "denominator",
              "display": "Denominator"
            } ]
          },
          "count": 1
        }, {
          "code": {
            "coding": [ {
              "system": "http://terminology.hl7.org/CodeSystem/measure-population",
              "code": "denominator-exclusion",
              "display": "Denominator Exclusion"
            } ]
          },
          "count": 1
        }, {
          "code": {
            "coding": [ {
              "system": "http://terminology.hl7.org/CodeSystem/measure-population",
              "code": "numerator",
              "display": "Numerator"
            } ]
          },
          "count": 0
        } ]
      } ],
      "evaluatedResource": [ {
        "reference": "Patient/cade5021-b1bf-43e9-a0a4-659c05b386d0"
      }, {
        "reference": "Encounter/Encounter-15"
      }, {
        "reference": "Condition/Condition-12"
      }, {
        "reference": "MedicationRequest/MedicationRequest-1"
      }, {
        "reference": "Observation/Observation-1"
      } ]
    },
    "request": {
      "method": "PUT",
      "url": "MeasureReport/89c77ae8-2360-4bac-a5b1-52285e9a082a"
    }
  } ]
}
