{
  "resourceType": "Bundle",
  "id": "NUMFail-InitHOOSAfterTHAFUHOOS300DaysAfterTHA",
  "type": "transaction",
  "entry": [ {
    "fullUrl": "https://madie.cms.gov/Patient/49640f81-b5ff-408a-82eb-436cf41a9d1d",
    "resource": {
      "resourceType": "Patient",
      "id": "49640f81-b5ff-408a-82eb-436cf41a9d1d",
      "meta": {
        "profile": [ "http://hl7.org/fhir/us/qicore/StructureDefinition/qicore-patient" ]
      },
      "extension": [ {
        "url": "http://hl7.org/fhir/us/core/StructureDefinition/us-core-race",
        "extension": [ {
          "url": "ombCategory",
          "valueCoding": {
            "system": "urn:oid:2.16.840.1.113883.6.238",
            "code": "2028-9",
            "display": "Asian"
          }
        }, {
          "url": "text",
          "valueString": "Asian"
        } ]
      }, {
        "url": "http://hl7.org/fhir/us/core/StructureDefinition/us-core-ethnicity",
        "extension": [ {
          "url": "ombCategory",
          "valueCoding": {
            "system": "urn:oid:2.16.840.1.113883.6.238",
            "code": "2135-2",
            "display": "Hispanic or Latino"
          }
        }, {
          "url": "text",
          "valueString": "Hispanic or Latino"
        } ]
      } ],
      "identifier": [ {
        "system": "http://hospital.smarthealthit.org",
        "value": "999999995"
      } ],
      "name": [ {
        "family": "Bertha",
        "given": [ "Betty" ]
      } ],
      "gender": "female",
      "birthDate": "2006-01-01"
    },
    "request": {
      "method": "PUT",
      "url": "Patient/49640f81-b5ff-408a-82eb-436cf41a9d1d"
    }
  }, {
    "fullUrl": "https://madie.cms.gov/Procedure/Procedure-32",
    "resource": {
      "resourceType": "Procedure",
      "id": "Procedure-32",
      "meta": {
        "profile": [ "http://hl7.org/fhir/us/qicore/StructureDefinition/qicore-procedure" ]
      },
      "extension": [ {
        "url": "http://hl7.org/fhir/us/qicore/StructureDefinition/qicore-recorded",
        "valueDateTime": "2023-11-01T00:00:00.000Z"
      } ],
      "status": "completed",
      "code": {
        "coding": [ {
          "system": "http://www.cms.gov/Medicare/Coding/ICD10",
          "code": "0SR9019",
          "display": "Replacement of Right Hip Joint with Metal Synthetic Substitute, Cemented, Open Approach"
        } ]
      },
      "subject": {
        "reference": "Patient/49640f81-b5ff-408a-82eb-436cf41a9d1d"
      },
      "performedPeriod": {
        "start": "2023-11-01T00:00:00.000Z",
        "end": "2023-11-01T01:00:00.000Z"
      }
    },
    "request": {
      "method": "PUT",
      "url": "Procedure/Procedure-32"
    }
  }, {
    "fullUrl": "https://madie.cms.gov/Encounter/Encounter-32",
    "resource": {
      "resourceType": "Encounter",
      "id": "Encounter-32",
      "meta": {
        "profile": [ "http://hl7.org/fhir/us/qicore/StructureDefinition/qicore-encounter" ]
      },
      "status": "finished",
      "class": {
        "system": "http://terminology.hl7.org/CodeSystem/v3-ActCode",
        "code": "AMB",
        "display": "ambulatory"
      },
      "type": [ {
        "coding": [ {
          "system": "http://snomed.info/sct",
          "code": "281036007",
          "display": "Follow-up consultation (procedure)"
        } ]
      } ],
      "subject": {
        "reference": "Patient/49640f81-b5ff-408a-82eb-436cf41a9d1d"
      },
      "period": {
        "start": "2024-11-01T00:00:00.000Z",
        "end": "2024-11-01T01:15:00.000Z"
      }
    },
    "request": {
      "method": "PUT",
      "url": "Encounter/Encounter-32"
    }
  }, {
    "fullUrl": "https://madie.cms.gov/Observation/Observation-32.1-1",
    "resource": {
      "resourceType": "Observation",
      "id": "Observation-32.1-1",
      "meta": {
        "profile": [ "http://hl7.org/fhir/us/qicore/StructureDefinition/qicore-observation" ]
      },
      "status": "final",
      "category": [ {
        "coding": [ {
          "system": "http://terminology.hl7.org/CodeSystem/observation-category",
          "code": "survey"
        } ]
      } ],
      "code": {
        "coding": [ {
          "system": "http://loinc.org",
          "code": "72093-8",
          "display": "Quality of life score [HOOS]"
        } ]
      },
      "subject": {
        "reference": "Patient/49640f81-b5ff-408a-82eb-436cf41a9d1d"
      },
      "effectivePeriod": {
        "start": "2023-11-02T00:00:00.000Z",
        "end": "2023-11-02T01:00:00.000Z"
      },
      "valueInteger": 60
    },
    "request": {
      "method": "PUT",
      "url": "Observation/Observation-32.1-1"
    }
  }, {
    "fullUrl": "https://madie.cms.gov/Observation/Observation-32.1-2",
    "resource": {
      "resourceType": "Observation",
      "id": "Observation-32.1-2",
      "meta": {
        "profile": [ "http://hl7.org/fhir/us/qicore/StructureDefinition/qicore-observation" ]
      },
      "status": "final",
      "category": [ {
        "coding": [ {
          "system": "http://terminology.hl7.org/CodeSystem/observation-category",
          "code": "survey"
        } ]
      } ],
      "code": {
        "coding": [ {
          "system": "http://loinc.org",
          "code": "72094-6",
          "display": "Sport-recreation score [HOOS]"
        } ]
      },
      "subject": {
        "reference": "Patient/49640f81-b5ff-408a-82eb-436cf41a9d1d"
      },
      "effectivePeriod": {
        "start": "2023-11-02T00:00:00.000Z",
        "end": "2023-11-02T01:00:00.000Z"
      },
      "valueInteger": 60
    },
    "request": {
      "method": "PUT",
      "url": "Observation/Observation-32.1-2"
    }
  }, {
    "fullUrl": "https://madie.cms.gov/Observation/Observation-32.1-3",
    "resource": {
      "resourceType": "Observation",
      "id": "Observation-32.1-3",
      "meta": {
        "profile": [ "http://hl7.org/fhir/us/qicore/StructureDefinition/qicore-observation" ]
      },
      "status": "final",
      "category": [ {
        "coding": [ {
          "system": "http://terminology.hl7.org/CodeSystem/observation-category",
          "code": "survey"
        } ]
      } ],
      "code": {
        "coding": [ {
          "system": "http://loinc.org",
          "code": "72095-3",
          "display": "Activities of daily living score [HOOS]"
        } ]
      },
      "subject": {
        "reference": "Patient/49640f81-b5ff-408a-82eb-436cf41a9d1d"
      },
      "effectivePeriod": {
        "start": "2023-11-02T00:00:00.000Z",
        "end": "2023-11-02T01:00:00.000Z"
      },
      "valueInteger": 60
    },
    "request": {
      "method": "PUT",
      "url": "Observation/Observation-32.1-3"
    }
  }, {
    "fullUrl": "https://madie.cms.gov/Observation/Observation-32.1-4",
    "resource": {
      "resourceType": "Observation",
      "id": "Observation-32.1-4",
      "meta": {
        "profile": [ "http://hl7.org/fhir/us/qicore/StructureDefinition/qicore-observation" ]
      },
      "status": "final",
      "category": [ {
        "coding": [ {
          "system": "http://terminology.hl7.org/CodeSystem/observation-category",
          "code": "survey"
        } ]
      } ],
      "code": {
        "coding": [ {
          "system": "http://loinc.org",
          "code": "72096-1",
          "display": "Symptoms score [HOOS]"
        } ]
      },
      "subject": {
        "reference": "Patient/49640f81-b5ff-408a-82eb-436cf41a9d1d"
      },
      "effectivePeriod": {
        "start": "2023-11-02T00:00:00.000Z",
        "end": "2023-11-02T01:00:00.000Z"
      },
      "valueInteger": 60
    },
    "request": {
      "method": "PUT",
      "url": "Observation/Observation-32.1-4"
    }
  }, {
    "fullUrl": "https://madie.cms.gov/Observation/Observation-32.1-5",
    "resource": {
      "resourceType": "Observation",
      "id": "Observation-32.1-5",
      "meta": {
        "profile": [ "http://hl7.org/fhir/us/qicore/StructureDefinition/qicore-observation" ]
      },
      "status": "final",
      "category": [ {
        "coding": [ {
          "system": "http://terminology.hl7.org/CodeSystem/observation-category",
          "code": "survey"
        } ]
      } ],
      "code": {
        "coding": [ {
          "system": "http://loinc.org",
          "code": "72097-9",
          "display": "Pain score [HOOS]"
        } ]
      },
      "subject": {
        "reference": "Patient/49640f81-b5ff-408a-82eb-436cf41a9d1d"
      },
      "effectivePeriod": {
        "start": "2023-11-02T00:00:00.000Z",
        "end": "2023-11-02T01:00:00.000Z"
      },
      "valueInteger": 60
    },
    "request": {
      "method": "PUT",
      "url": "Observation/Observation-32.1-5"
    }
  }, {
    "fullUrl": "https://madie.cms.gov/Observation/Observation-32.2-1",
    "resource": {
      "resourceType": "Observation",
      "id": "Observation-32.2-1",
      "meta": {
        "profile": [ "http://hl7.org/fhir/us/qicore/StructureDefinition/qicore-observation" ]
      },
      "status": "final",
      "category": [ {
        "coding": [ {
          "system": "http://terminology.hl7.org/CodeSystem/observation-category",
          "code": "survey"
        } ]
      } ],
      "code": {
        "coding": [ {
          "system": "http://loinc.org",
          "code": "72093-8",
          "display": "Quality of life score [HOOS]"
        } ]
      },
      "subject": {
        "reference": "Patient/49640f81-b5ff-408a-82eb-436cf41a9d1d"
      },
      "effectivePeriod": {
        "start": "2023-11-02T00:00:00.000Z",
        "end": "2023-11-02T01:00:00.000Z"
      },
      "valueInteger": 60
    },
    "request": {
      "method": "PUT",
      "url": "Observation/Observation-32.2-1"
    }
  }, {
    "fullUrl": "https://madie.cms.gov/Observation/Observation-32.2-2",
    "resource": {
      "resourceType": "Observation",
      "id": "Observation-32.2-2",
      "meta": {
        "profile": [ "http://hl7.org/fhir/us/qicore/StructureDefinition/qicore-observation" ]
      },
      "status": "final",
      "category": [ {
        "coding": [ {
          "system": "http://terminology.hl7.org/CodeSystem/observation-category",
          "code": "survey"
        } ]
      } ],
      "code": {
        "coding": [ {
          "system": "http://loinc.org",
          "code": "72094-6",
          "display": "Sport-recreation score [HOOS]"
        } ]
      },
      "subject": {
        "reference": "Patient/49640f81-b5ff-408a-82eb-436cf41a9d1d"
      },
      "effectivePeriod": {
        "start": "2023-11-02T00:00:00.000Z",
        "end": "2023-11-02T01:00:00.000Z"
      },
      "valueInteger": 60
    },
    "request": {
      "method": "PUT",
      "url": "Observation/Observation-32.2-2"
    }
  }, {
    "fullUrl": "https://madie.cms.gov/Observation/Observation-32.2-3",
    "resource": {
      "resourceType": "Observation",
      "id": "Observation-32.2-3",
      "meta": {
        "profile": [ "http://hl7.org/fhir/us/qicore/StructureDefinition/qicore-observation" ]
      },
      "status": "final",
      "category": [ {
        "coding": [ {
          "system": "http://terminology.hl7.org/CodeSystem/observation-category",
          "code": "survey"
        } ]
      } ],
      "code": {
        "coding": [ {
          "system": "http://loinc.org",
          "code": "72095-3",
          "display": "Activities of daily living score [HOOS]"
        } ]
      },
      "subject": {
        "reference": "Patient/49640f81-b5ff-408a-82eb-436cf41a9d1d"
      },
      "effectivePeriod": {
        "start": "2023-11-02T00:00:00.000Z",
        "end": "2023-11-02T01:00:00.000Z"
      },
      "valueInteger": 60
    },
    "request": {
      "method": "PUT",
      "url": "Observation/Observation-32.2-3"
    }
  }, {
    "fullUrl": "https://madie.cms.gov/Observation/Observation-32.2-4",
    "resource": {
      "resourceType": "Observation",
      "id": "Observation-32.2-4",
      "meta": {
        "profile": [ "http://hl7.org/fhir/us/qicore/StructureDefinition/qicore-observation" ]
      },
      "status": "final",
      "category": [ {
        "coding": [ {
          "system": "http://terminology.hl7.org/CodeSystem/observation-category",
          "code": "survey"
        } ]
      } ],
      "code": {
        "coding": [ {
          "system": "http://loinc.org",
          "code": "72096-1",
          "display": "Symptoms score [HOOS]"
        } ]
      },
      "subject": {
        "reference": "Patient/49640f81-b5ff-408a-82eb-436cf41a9d1d"
      },
      "effectivePeriod": {
        "start": "2023-11-02T00:00:00.000Z",
        "end": "2023-11-02T01:00:00.000Z"
      },
      "valueInteger": 60
    },
    "request": {
      "method": "PUT",
      "url": "Observation/Observation-32.2-4"
    }
  }, {
    "fullUrl": "https://madie.cms.gov/Observation/Observation-32.2-5",
    "resource": {
      "resourceType": "Observation",
      "id": "Observation-32.2-5",
      "meta": {
        "profile": [ "http://hl7.org/fhir/us/qicore/StructureDefinition/qicore-observation" ]
      },
      "status": "final",
      "category": [ {
        "coding": [ {
          "system": "http://terminology.hl7.org/CodeSystem/observation-category",
          "code": "survey"
        } ]
      } ],
      "code": {
        "coding": [ {
          "system": "http://loinc.org",
          "code": "72097-9",
          "display": "Pain score [HOOS]"
        } ]
      },
      "subject": {
        "reference": "Patient/49640f81-b5ff-408a-82eb-436cf41a9d1d"
      },
      "effectivePeriod": {
        "start": "2023-11-02T00:00:00.000Z",
        "end": "2023-11-02T01:00:00.000Z"
      },
      "valueInteger": 60
    },
    "request": {
      "method": "PUT",
      "url": "Observation/Observation-32.2-5"
    }
  }, {
    "fullUrl": "https://madie.cms.gov/MeasureReport/79ca4c93-7b6d-4445-947b-f48c91f5a96b",
    "resource": {
      "resourceType": "MeasureReport",
      "id": "79ca4c93-7b6d-4445-947b-f48c91f5a96b",
      "meta": {
        "profile": [ "http://hl7.org/fhir/us/cqfmeasures/StructureDefinition/test-case-cqfm" ]
      },
      "contained": [ {
        "resourceType": "Parameters",
        "id": "937544ce-ad4c-45f3-a698-069a3507fc11-parameters",
        "parameter": [ {
          "name": "subject",
          "valueString": "49640f81-b5ff-408a-82eb-436cf41a9d1d"
        } ]
      } ],
      "extension": [ {
        "url": "http://hl7.org/fhir/us/cqfmeasures/StructureDefinition/cqfm-inputParameters",
        "valueReference": {
          "reference": "#937544ce-ad4c-45f3-a698-069a3507fc11-parameters"
        }
      }, {
        "url": "http://hl7.org/fhir/us/cqfmeasures/StructureDefinition/cqfm-testCaseDescription",
        "valueMarkdown": "Patient w/ a THA Procedure 11/1, Initial Hip Assessment HOOS day after THA Procedure(11/2), and FollowUp Hip Assessment HOOS 300 days after THA Procedure (8/27)"
      } ],
      "modifierExtension": [ {
        "url": "http://hl7.org/fhir/us/cqfmeasures/StructureDefinition/cqfm-isTestCase",
        "valueBoolean": true
      } ],
      "status": "complete",
      "type": "individual",
      "measure": "https://madie.cms.gov/Measure/FunctionalStatusAssessmentforTotalHipReplacementFHIR",
      "period": {
        "start": "2025-01-01",
        "end": "2025-12-31"
      },
      "group": [ {
        "population": [ {
          "code": {
            "coding": [ {
              "system": "http://terminology.hl7.org/CodeSystem/measure-population",
              "code": "initial-population",
              "display": "Initial Population"
            } ]
          },
          "count": 1
        }, {
          "code": {
            "coding": [ {
              "system": "http://terminology.hl7.org/CodeSystem/measure-population",
              "code": "denominator",
              "display": "Denominator"
            } ]
          },
          "count": 1
        }, {
          "code": {
            "coding": [ {
              "system": "http://terminology.hl7.org/CodeSystem/measure-population",
              "code": "denominator-exclusion",
              "display": "Denominator Exclusion"
            } ]
          },
          "count": 0
        }, {
          "code": {
            "coding": [ {
              "system": "http://terminology.hl7.org/CodeSystem/measure-population",
              "code": "numerator",
              "display": "Numerator"
            } ]
          },
          "count": 0
        } ]
      } ],
      "evaluatedResource": [ {
        "reference": "Patient/49640f81-b5ff-408a-82eb-436cf41a9d1d"
      }, {
        "reference": "Procedure/Procedure-32"
      }, {
        "reference": "Encounter/Encounter-32"
      }, {
        "reference": "Observation/Observation-32.1-1"
      }, {
        "reference": "Observation/Observation-32.1-2"
      }, {
        "reference": "Observation/Observation-32.1-3"
      }, {
        "reference": "Observation/Observation-32.1-4"
      }, {
        "reference": "Observation/Observation-32.1-5"
      }, {
        "reference": "Observation/Observation-32.2-1"
      }, {
        "reference": "Observation/Observation-32.2-2"
      }, {
        "reference": "Observation/Observation-32.2-3"
      }, {
        "reference": "Observation/Observation-32.2-4"
      }, {
        "reference": "Observation/Observation-32.2-5"
      } ]
    },
    "request": {
      "method": "PUT",
      "url": "MeasureReport/79ca4c93-7b6d-4445-947b-f48c91f5a96b"
    }
  } ]
}