{
  "resourceType": "Bundle",
  "id": "63487c300968f801225401be",
  "type": "transaction",
  "entry": [ {
    "fullUrl": "Patient/2b5476ea-52e5-467f-966c-81aea3d82ff0",
    "resource": {
      "resourceType": "Patient",
      "id": "2b5476ea-52e5-467f-966c-81aea3d82ff0",
      "meta": {
        "profile": [ "http://hl7.org/fhir/us/qicore/StructureDefinition/qicore-patient" ]
      },
      "text": {
        "status": "generated",
        "div": "<div xmlns=\"http://www.w3.org/1999/xhtml\"><div class=\"hapiHeaderText\">AssessTermLastMissingResult <b>DENFAIL </b></div><table class=\"hapiPropertyTable\"><tbody><tr><td>Identifier</td><td>e6e21c3fa4edfea41e3da1195d4a7d3d8dc72d010572e04bff4dafb21a72c78e</td></tr><tr><td>Date of birth</td><td><span>14 February 1985</span></td></tr></tbody></table></div>"
      },
      "extension": [ {
        "url": "http://hl7.org/fhir/us/core/StructureDefinition/us-core-race",
        "extension": [ {
          "url": "ombCategory",
          "valueCoding": {
            "system": "urn:oid:2.16.840.1.113883.6.238",
            "code": "1002-5",
            "display": "American Indian or Alaska Native",
            "userSelected": true
          }
        }, {
          "url": "text",
          "valueString": "American Indian or Alaska Native"
        } ]
      }, {
        "url": "http://hl7.org/fhir/us/core/StructureDefinition/us-core-ethnicity",
        "extension": [ {
          "url": "ombCategory",
          "valueCoding": {
            "system": "urn:oid:2.16.840.1.113883.6.238",
            "code": "2135-2",
            "display": "Hispanic or Latino",
            "userSelected": true
          }
        }, {
          "url": "text",
          "valueString": "Hispanic or Latino"
        } ]
      } ],
      "identifier": [ {
        "type": {
          "coding": [ {
            "system": "http://terminology.hl7.org/CodeSystem/v2-0203",
            "code": "MR"
          } ]
        },
        "system": "https://bonnie-fhir.healthit.gov/",
        "value": "63487c300968f801225401be"
      } ],
      "active": true,
      "name": [ {
        "use": "usual",
        "family": "DENFail",
        "given": [ "AssessTermLastMissingResult" ]
      } ],
      "gender": "female",
      "birthDate": "1997-02-14"
    },
    "request": {
      "method": "PUT",
      "url": "Patient/2b5476ea-52e5-467f-966c-81aea3d82ff0"
    }
  }, {
    "fullUrl": "Observation/5d014eb2b848460872380675",
    "resource": {
      "resourceType": "Observation",
      "id": "5d014eb2b848460872380675",
      "meta": {
        "profile": [ "http://hl7.org/fhir/us/qicore/StructureDefinition/qicore-observation" ]
      },
      "status": "final",
      "category": [ {
        "coding": [ {
          "system": "http://terminology.hl7.org/CodeSystem/observation-category",
          "code": "exam",
          "display": "exam",
          "userSelected": true
        } ]
      } ],
      "code": {
        "coding": [ {
          "system": "http://loinc.org",
          "code": "11637-6"
        } ]
      },
      "subject": {
        "reference": "Patient/2b5476ea-52e5-467f-966c-81aea3d82ff0"
      },
      "effectiveDateTime": "2024-09-19T09:00:00.000+00:00",
      "valueInteger": 0
    },
    "request": {
      "method": "PUT",
      "url": "Observation/5d014eb2b848460872380675"
    }
  }, {
    "fullUrl": "Observation/5d014eb2b848460872380677",
    "resource": {
      "resourceType": "Observation",
      "id": "5d014eb2b848460872380677",
      "meta": {
        "profile": [ "http://hl7.org/fhir/us/qicore/StructureDefinition/qicore-observation" ]
      },
      "status": "final",
      "category": [ {
        "coding": [ {
          "system": "http://terminology.hl7.org/CodeSystem/observation-category",
          "code": "exam",
          "display": "exam",
          "userSelected": true
        } ]
      } ],
      "code": {
        "coding": [ {
          "system": "http://loinc.org",
          "code": "11639-2"
        } ]
      },
      "subject": {
        "reference": "Patient/2b5476ea-52e5-467f-966c-81aea3d82ff0"
      },
      "effectiveDateTime": "2024-09-19T09:00:00.000+00:00"
    },
    "request": {
      "method": "PUT",
      "url": "Observation/5d014eb2b848460872380677"
    }
  }, {
    "fullUrl": "Observation/5d014eb2b848460872380679",
    "resource": {
      "resourceType": "Observation",
      "id": "5d014eb2b848460872380679",
      "meta": {
        "profile": [ "http://hl7.org/fhir/us/qicore/StructureDefinition/qicore-observation" ]
      },
      "status": "final",
      "category": [ {
        "coding": [ {
          "system": "http://terminology.hl7.org/CodeSystem/observation-category",
          "code": "exam",
          "display": "exam",
          "userSelected": true
        } ]
      } ],
      "code": {
        "coding": [ {
          "system": "http://loinc.org",
          "code": "11884-4"
        } ]
      },
      "subject": {
        "reference": "Patient/2b5476ea-52e5-467f-966c-81aea3d82ff0"
      },
      "effectiveDateTime": "2025-06-08T20:00:00.000+00:00",
      "valueQuantity": {
        "value": 37.0,
        "system": "http://unitsofmeasure.org",
        "code": "weeks"
      }
    },
    "request": {
      "method": "PUT",
      "url": "Observation/5d014eb2b848460872380679"
    }
  }, {
    "fullUrl": "Observation/5e6972f97ffec70000322fd2",
    "resource": {
      "resourceType": "Observation",
      "id": "5e6972f97ffec70000322fd2",
      "meta": {
        "profile": [ "http://hl7.org/fhir/us/qicore/StructureDefinition/qicore-observation" ]
      },
      "status": "final",
      "category": [ {
        "coding": [ {
          "system": "http://terminology.hl7.org/CodeSystem/observation-category",
          "code": "exam",
          "display": "exam",
          "userSelected": true
        } ]
      } ],
      "code": {
        "coding": [ {
          "system": "http://loinc.org",
          "code": "93857-1"
        } ]
      },
      "subject": {
        "reference": "Patient/2b5476ea-52e5-467f-966c-81aea3d82ff0"
      },
      "effectiveDateTime": "2025-06-08T20:00:00.000+00:00",
      "valueDateTime": "2025-06-08T20:00:00+00:00"
    },
    "request": {
      "method": "PUT",
      "url": "Observation/5e6972f97ffec70000322fd2"
    }
  }, {
    "fullUrl": "Encounter/5d014eb2b848460872380673",
    "resource": {
      "resourceType": "Encounter",
      "id": "5d014eb2b848460872380673",
      "meta": {
        "profile": [ "http://hl7.org/fhir/us/qicore/StructureDefinition/qicore-encounter" ]
      },
      "status": "finished",
      "class": {
        "system": "http://terminology.hl7.org/CodeSystem/v3-ActCode",
        "code": "IMP",
        "display": "inpatient encounter"
      },
      "type": [ {
        "coding": [ {
          "system": "http://snomed.info/sct",
          "code": "8715000"
        } ]
      } ],
      "subject": {
        "reference": "Patient/2b5476ea-52e5-467f-966c-81aea3d82ff0"
      },
      "period": {
        "start": "2025-06-08T08:00:00.000Z",
        "end": "2025-06-10T08:15:00.000Z"
      },
      "length": {
        "value": 2.0,
        "unit": "days"
      },
      "diagnosis": [ {
        "condition": {
          "reference": "Condition/delivery-of-singleton-f83c"
        },
        "use": {
          "coding": [ {
            "system": "http://snomed.info/sct",
            "code": "169826009",
            "display": "Delivery of Singleton"
          } ]
        }
      }, {
        "condition": {
          "reference": "Condition/delivery-of-singleton-4b1d"
        }
      } ]
    },
    "request": {
      "method": "PUT",
      "url": "Encounter/5d014eb2b848460872380673"
    }
  }, {
    "fullUrl": "Procedure/5d014eb2b848460872380674",
    "resource": {
      "resourceType": "Procedure",
      "id": "5d014eb2b848460872380674",
      "meta": {
        "profile": [ "http://hl7.org/fhir/us/qicore/StructureDefinition/qicore-procedure" ]
      },
      "extension": [ {
        "url": "http://hl7.org/fhir/us/qicore/StructureDefinition/qicore-recorded",
        "valueDateTime": "2013-04-05T09:35:00-04:00"
      } ],
      "status": "completed",
      "code": {
        "coding": [ {
          "system": "http://www.cms.gov/Medicare/Coding/ICD10",
          "code": "10D00Z0"
        }, {
          "system": "http://snomed.info/sct",
          "code": "4504004"
        }, {
          "system": "http://www.icd10data.com/icd10pcs",
          "code": "10D00Z0",
          "userSelected": true
        } ]
      },
      "subject": {
        "reference": "Patient/2b5476ea-52e5-467f-966c-81aea3d82ff0"
      },
      "performedPeriod": {
        "start": "2025-06-08T20:00:00.000Z",
        "end": "2025-06-08T20:15:00.000Z"
      }
    },
    "request": {
      "method": "PUT",
      "url": "Procedure/5d014eb2b848460872380674"
    }
  }, {
    "fullUrl": "Condition/delivery-of-singleton-4b1d",
    "resource": {
      "resourceType": "Condition",
      "id": "delivery-of-singleton-4b1d",
      "meta": {
        "profile": [ "http://hl7.org/fhir/us/qicore/StructureDefinition/qicore-condition" ]
      },
      "category": [ {
        "coding": [ {
          "system": "http://terminology.hl7.org/CodeSystem/condition-category",
          "code": "encounter-diagnosis",
          "display": "Encounter Diagnosis"
        } ]
      } ],
      "code": {
        "coding": [ {
          "system": "http://snomed.info/sct",
          "version": "2022-09",
          "code": "169826009",
          "display": "Single live birth (finding)",
          "userSelected": true
        } ]
      },
      "subject": {
        "reference": "Patient/2b5476ea-52e5-467f-966c-81aea3d82ff0"
      },
      "recordedDate": "2025-10-21T08:00:00.000+00:00"
    },
    "request": {
      "method": "PUT",
      "url": "Condition/delivery-of-singleton-4b1d"
    }
  }, {
    "fullUrl": "Coverage/Coverage-1",
    "resource": {
      "resourceType": "Coverage",
      "id": "Coverage-1",
      "meta": {
        "profile": [ "http://hl7.org/fhir/us/qicore/StructureDefinition/qicore-coverage" ]
      },
      "status": "active",
      "beneficiary": {
        "reference": "Patient/2b5476ea-52e5-467f-966c-81aea3d82ff0"
      },
      "payor": [ {
        "reference": "Organization/Org-123456"
      } ]
    },
    "request": {
      "method": "PUT",
      "url": "Coverage/Coverage-1"
    }
  }, {
    "fullUrl": "Organization/Org-123456",
    "resource": {
      "resourceType": "Organization",
      "id": "Org-123456",
      "meta": {
        "profile": [ "http://hl7.org/fhir/us/qicore/StructureDefinition/qicore-organization" ]
      },
      "identifier": [ {
        "use": "temp",
        "system": "urn:oid:2.16.840.1.113883.4.4",
        "value": "21-3259825"
      } ],
      "active": true,
      "type": [ {
        "coding": [ {
          "system": "http://terminology.hl7.org/CodeSystem/organization-type",
          "code": "pay",
          "display": "Payer"
        } ]
      } ],
      "name": "Blue Cross Blue Shield of Texas",
      "telecom": [ {
        "system": "phone",
        "value": "(+1) 972-766-6900"
      } ],
      "address": [ {
        "use": "billing",
        "type": "postal",
        "line": [ "P.O. Box 660044" ],
        "city": "Dallas",
        "state": "TX",
        "postalCode": "75266-0044",
        "country": "USA"
      } ]
    },
    "request": {
      "method": "PUT",
      "url": "Organization/Org-123456"
    }
  }, {
    "fullUrl": "Practitioner/practitioner-123456",
    "resource": {
      "resourceType": "Practitioner",
      "id": "practitioner-123456",
      "identifier": [ {
        "system": "http://hl7.org/fhir/sid/us-npi",
        "value": "123456"
      } ],
      "name": [ {
        "family": "Evil",
        "prefix": [ "Dr" ]
      } ]
    },
    "request": {
      "method": "PUT",
      "url": "Practitioner/practitioner-123456"
    }
  }, {
    "fullUrl": "MeasureReport/5a1c73b1-022b-446e-8a51-10e545905bcf",
    "resource": {
      "resourceType": "MeasureReport",
      "id": "5a1c73b1-022b-446e-8a51-10e545905bcf",
      "meta": {
        "profile": [ "http://hl7.org/fhir/us/cqfmeasures/StructureDefinition/test-case-cqfm" ]
      },
      "contained": [ {
        "resourceType": "Parameters",
        "id": "fb219b84-7d3d-4844-a0c1-c15eab1be4a9-parameters",
        "parameter": [ {
          "name": "subject",
          "valueString": "2b5476ea-52e5-467f-966c-81aea3d82ff0"
        } ]
      } ],
      "extension": [ {
        "url": "http://hl7.org/fhir/us/cqfmeasures/StructureDefinition/cqfm-inputParameters",
        "valueReference": {
          "reference": "#fb219b84-7d3d-4844-a0c1-c15eab1be4a9-parameters"
        }
      }, {
        "url": "http://hl7.org/fhir/us/cqfmeasures/StructureDefinition/cqfm-testCaseDescription",
        "valueMarkdown": "\"Preterm Births=0, Rel Date/time < 42weeks prior to delivery\nTerm Newborn missing result, Rel Date/time < 42weeks prior to delivery\"\n"
      } ],
      "modifierExtension": [ {
        "url": "http://hl7.org/fhir/us/cqfmeasures/StructureDefinition/cqfm-isTestCase",
        "valueBoolean": true
      } ],
      "status": "complete",
      "type": "individual",
      "measure": "Measure/CesareanBirthFHIR",
      "period": {
        "start": "2025-01-01",
        "end": "2025-12-31"
      },
      "group": [ {
        "population": [ {
          "code": {
            "coding": [ {
              "system": "http://terminology.hl7.org/CodeSystem/measure-population",
              "code": "initial-population",
              "display": "Initial Population"
            } ]
          },
          "count": 1
        }, {
          "code": {
            "coding": [ {
              "system": "http://terminology.hl7.org/CodeSystem/measure-population",
              "code": "denominator",
              "display": "Denominator"
            } ]
          },
          "count": 0
        }, {
          "code": {
            "coding": [ {
              "system": "http://terminology.hl7.org/CodeSystem/measure-population",
              "code": "denominator-exclusion",
              "display": "Denominator Exclusion"
            } ]
          },
          "count": 0
        }, {
          "code": {
            "coding": [ {
              "system": "http://terminology.hl7.org/CodeSystem/measure-population",
              "code": "numerator",
              "display": "Numerator"
            } ]
          },
          "count": 0
        } ]
      } ],
      "evaluatedResource": [ {
        "reference": "Patient/2b5476ea-52e5-467f-966c-81aea3d82ff0"
      }, {
        "reference": "Observation/5d014eb2b848460872380675"
      }, {
        "reference": "Observation/5d014eb2b848460872380677"
      }, {
        "reference": "Observation/5d014eb2b848460872380679"
      }, {
        "reference": "Observation/5e6972f97ffec70000322fd2"
      }, {
        "reference": "Encounter/5d014eb2b848460872380673"
      }, {
        "reference": "Procedure/5d014eb2b848460872380674"
      }, {
        "reference": "Condition/delivery-of-singleton-4b1d"
      }, {
        "reference": "Coverage/Coverage-1"
      }, {
        "reference": "Organization/Org-123456"
      }, {
        "reference": "Practitioner/practitioner-123456"
      } ]
    },
    "request": {
      "method": "PUT",
      "url": "MeasureReport/5a1c73b1-022b-446e-8a51-10e545905bcf"
    }
  } ]
}
