{"resourceType":"Bundle","id":"tests-cf0c5672-d86d-47fa-b13b-9bdb299c1d47-bundle","type":"transaction","entry":[{"fullUrl":"https://madie.cms.gov/Patient/cf0c5672-d86d-47fa-b13b-9bdb299c1d47","resource":{"resourceType":"Patient","id":"cf0c5672-d86d-47fa-b13b-9bdb299c1d47","meta":{"profile":["http://hl7.org/fhir/us/qicore/StructureDefinition/qicore-patient"]},"text":{"status":"generated","div":"<div xmlns=\"http://www.w3.org/1999/xhtml\"><div class=\"hapiHeaderText\">CMOdurEnc_ED&gt;1hrNoObsBFEnc <b>DENEXPASS </b></div><table class=\"hapiPropertyTable\"><tbody><tr><td>Identifier</td><td>496183456d67ef64425d16b4c0b60c8c</td></tr><tr><td>Date of birth</td><td><span>21 August 1994</span></td></tr></tbody></table></div>"},"extension":[{"url":"http://hl7.org/fhir/us/core/StructureDefinition/us-core-race","extension":[{"url":"ombCategory","valueCoding":{"system":"urn:oid:2.16.840.1.113883.6.238","code":"1002-5","display":"American Indian or Alaska Native","userSelected":true}},{"url":"text","valueString":"American Indian or Alaska Native"}]},{"url":"http://hl7.org/fhir/us/core/StructureDefinition/us-core-ethnicity","extension":[{"url":"ombCategory","valueCoding":{"system":"urn:oid:2.16.840.1.113883.6.238","code":"2135-2","display":"Hispanic or Latino","userSelected":true}},{"url":"text","valueString":"Hispanic or Latino"}]}],"identifier":[{"type":{"coding":[{"system":"http://terminology.hl7.org/CodeSystem/v2-0203","code":"MR"}]},"system":"https://bonnie-fhir.healthit.gov/","value":"6129134602c62a011f2e6de7"}],"active":true,"name":[{"use":"usual","family":"DENEXPass","given":["CMOdurEnc_ED>1hrNoObsBFEnc"]}],"gender":"male","birthDate":"1995-08-21"},"request":{"method":"PUT","url":"Patient/cf0c5672-d86d-47fa-b13b-9bdb299c1d47"}},{"fullUrl":"https://madie.cms.gov/Encounter/8307a522-fdb0-4931-b195-be6312ab0d1f","resource":{"resourceType":"Encounter","id":"8307a522-fdb0-4931-b195-be6312ab0d1f","meta":{"profile":["http://hl7.org/fhir/us/qicore/StructureDefinition/qicore-encounter"]},"status":"finished","class":{"system":"http://terminology.hl7.org/CodeSystem/v3-ActCode","code":"EMER","display":"emergency","userSelected":true},"type":[{"coding":[{"system":"http://snomed.info/sct","code":"4525004"}]}],"subject":{"reference":"Patient/cf0c5672-d86d-47fa-b13b-9bdb299c1d47"},"period":{"start":"2026-10-10T07:30:00.000+00:00","end":"2026-10-10T08:29:00.000+00:00"},"length":{"value":0,"unit":"days"}},"request":{"method":"PUT","url":"Encounter/8307a522-fdb0-4931-b195-be6312ab0d1f"}},{"fullUrl":"https://madie.cms.gov/Encounter/74cb17f7-b36a-4d25-a839-ed2517cf3906","resource":{"resourceType":"Encounter","id":"74cb17f7-b36a-4d25-a839-ed2517cf3906","meta":{"profile":["http://hl7.org/fhir/us/qicore/StructureDefinition/qicore-encounter"]},"status":"finished","class":{"system":"http://terminology.hl7.org/CodeSystem/v3-ActCode","code":"IMP","display":"inpatient encounter","userSelected":true},"type":[{"coding":[{"system":"http://snomed.info/sct","code":"32485007"}]}],"subject":{"reference":"Patient/cf0c5672-d86d-47fa-b13b-9bdb299c1d47"},"period":{"start":"2026-10-10T09:30:00.000+00:00","end":"2026-10-12T10:30:00.000+00:00"},"length":{"value":2,"unit":"days"},"diagnosis":[{"condition":{"reference":"Condition/00de2e74-b51a-494b-9965-34e9cbc89626"},"use":{"coding":[{"system":"http://terminology.hl7.org/CodeSystem/diagnosis-role","code":"billing","display":"Billing"}]},"rank":1}]},"request":{"method":"PUT","url":"Encounter/74cb17f7-b36a-4d25-a839-ed2517cf3906"}},{"fullUrl":"https://madie.cms.gov/ServiceRequest/910e727e-42a3-49f4-a5ca-b45cc31403c5","resource":{"resourceType":"ServiceRequest","id":"910e727e-42a3-49f4-a5ca-b45cc31403c5","meta":{"profile":["http://hl7.org/fhir/us/qicore/StructureDefinition/qicore-servicerequest"]},"status":"active","intent":"order","code":{"coding":[{"system":"http://snomed.info/sct","code":"133918004"}]},"subject":{"reference":"Patient/cf0c5672-d86d-47fa-b13b-9bdb299c1d47"},"authoredOn":"2026-10-10T09:31:00.000+00:00"},"request":{"method":"PUT","url":"ServiceRequest/910e727e-42a3-49f4-a5ca-b45cc31403c5"}},{"fullUrl":"https://madie.cms.gov/Condition/00de2e74-b51a-494b-9965-34e9cbc89626","resource":{"resourceType":"Condition","id":"00de2e74-b51a-494b-9965-34e9cbc89626","meta":{"profile":["http://hl7.org/fhir/us/qicore/StructureDefinition/qicore-condition"]},"clinicalStatus":{"coding":[{"system":"http://terminology.hl7.org/CodeSystem/condition-clinical","code":"active"}]},"verificationStatus":{"coding":[{"system":"http://terminology.hl7.org/CodeSystem/condition-ver-status","code":"confirmed"}]},"category":[{"coding":[{"system":"http://terminology.hl7.org/CodeSystem/condition-category","code":"encounter-diagnosis","display":"Encounter Diagnosis"}]}],"code":{"coding":[{"system":"http://snomed.info/sct","version":"2020-09","code":"111297002","display":"Nonparalytic stroke (disorder)","userSelected":true}]},"subject":{"reference":"Patient/cf0c5672-d86d-47fa-b13b-9bdb299c1d47"},"recordedDate":"2026-07-14T08:00:00.000+00:00"},"request":{"method":"PUT","url":"Condition/00de2e74-b51a-494b-9965-34e9cbc89626"}},{"fullUrl":"https://madie.cms.gov/Coverage/e130230b-a44f-4d23-aaf0-236e0bbfc99c","resource":{"resourceType":"Coverage","id":"e130230b-a44f-4d23-aaf0-236e0bbfc99c","meta":{"profile":["http://hl7.org/fhir/us/qicore/StructureDefinition/qicore-coverage"]},"status":"active","beneficiary":{"reference":"Patient/cf0c5672-d86d-47fa-b13b-9bdb299c1d47"},"payor":[{"reference":"Organization/db141f66-a1cc-407b-9e95-adac27adee14"}]},"request":{"method":"PUT","url":"Coverage/e130230b-a44f-4d23-aaf0-236e0bbfc99c"}},{"fullUrl":"https://madie.cms.gov/Organization/38c16760-bbbf-4ee8-b8fa-e5ba874595a6","resource":{"resourceType":"Organization","id":"db141f66-a1cc-407b-9e95-adac27adee14","meta":{"profile":["http://hl7.org/fhir/us/qicore/StructureDefinition/qicore-organization"]},"identifier":[{"use":"temp","system":"urn:oid:2.16.840.1.113883.4.4","value":"21-3259825"}],"active":true,"type":[{"coding":[{"system":"http://terminology.hl7.org/CodeSystem/organization-type","code":"pay","display":"Payer"}]}],"name":"Blue Cross Blue Shield of Texas","telecom":[{"system":"phone","value":"(+1) 972-766-6900"}],"address":[{"use":"billing","type":"postal","line":["P.O. Box 660044"],"city":"Dallas","state":"TX","postalCode":"75266-0044","country":"USA"}]},"request":{"method":"PUT","url":"Organization/db141f66-a1cc-407b-9e95-adac27adee14"}},{"fullUrl":"https://madie.cms.gov/MeasureReport/c3931774-2473-412e-a600-a516348407fc","resource":{"resourceType":"MeasureReport","id":"c3931774-2473-412e-a600-a516348407fc","meta":{"profile":["http://hl7.org/fhir/us/cqfmeasures/StructureDefinition/test-case-cqfm"]},"contained":[{"resourceType":"Parameters","id":"b53a2933-92c0-44dd-808a-193948508ca0-parameters","parameter":[{"name":"subject","valueString":"cf0c5672-d86d-47fa-b13b-9bdb299c1d47"}]}],"extension":[{"url":"http://hl7.org/fhir/us/cqfmeasures/StructureDefinition/cqfm-inputParameters","valueReference":{"reference":"#b53a2933-92c0-44dd-808a-193948508ca0-parameters"}},{"url":"http://hl7.org/fhir/us/cqfmeasures/StructureDefinition/cqfm-testCaseDescription","valueMarkdown":"Patient receives CMO during inpatient encounter. ED ends 61 minutes before inpatient encounter start. No Observation. Testing day of operator with HospitalizationWithObservation function."}],"modifierExtension":[{"url":"http://hl7.org/fhir/us/cqfmeasures/StructureDefinition/cqfm-isTestCase","valueBoolean":true}],"status":"complete","type":"individual","measure":"https://madie.cms.gov/Measure/CMS104FHIRSTKDCAntithrombotic","period":{"start":"2026-01-01","end":"2026-12-31"},"group":[{"population":[{"code":{"coding":[{"system":"http://terminology.hl7.org/CodeSystem/measure-population","code":"initial-population","display":"Initial Population"}]},"count":1},{"code":{"coding":[{"system":"http://terminology.hl7.org/CodeSystem/measure-population","code":"denominator","display":"Denominator"}]},"count":1},{"code":{"coding":[{"system":"http://terminology.hl7.org/CodeSystem/measure-population","code":"denominator-exclusion","display":"Denominator Exclusion"}]},"count":1},{"code":{"coding":[{"system":"http://terminology.hl7.org/CodeSystem/measure-population","code":"numerator","display":"Numerator"}]},"count":0},{"code":{"coding":[{"system":"http://terminology.hl7.org/CodeSystem/measure-population","code":"denominator-exception","display":"Denominator Exception"}]},"count":0}]}]},"request":{"method":"PUT","url":"MeasureReport/c3931774-2473-412e-a600-a516348407fc"}}]}