{"resourceType":"Bundle","id":"tests-65ef54b4-48ea-4fc0-a9a7-79b3be807393-bundle","type":"transaction","entry":[{"fullUrl":"https://madie.cms.gov/Patient/65ef54b4-48ea-4fc0-a9a7-79b3be807393","resource":{"resourceType":"Patient","id":"65ef54b4-48ea-4fc0-a9a7-79b3be807393","meta":{"profile":["http://hl7.org/fhir/us/qicore/StructureDefinition/qicore-patient"]},"text":{"status":"generated","div":"<div xmlns=\"http://www.w3.org/1999/xhtml\"><div class=\"hapiHeaderText\">CMOdurED_ED=1hrNoObsBFEnc <b>DENEXPASS </b></div><table class=\"hapiPropertyTable\"><tbody><tr><td>Identifier</td><td>fad666e4c2c1dfdd2a733d377f721b1d97a846f6f50f3ff47ba2a0a21aa13fc6</td></tr><tr><td>Date of birth</td><td><span>21 August 1994</span></td></tr></tbody></table></div>"},"extension":[{"url":"http://hl7.org/fhir/us/core/StructureDefinition/us-core-race","extension":[{"url":"ombCategory","valueCoding":{"system":"urn:oid:2.16.840.1.113883.6.238","code":"1002-5","display":"American Indian or Alaska Native","userSelected":true}},{"url":"text","valueString":"American Indian or Alaska Native"}]},{"url":"http://hl7.org/fhir/us/core/StructureDefinition/us-core-ethnicity","extension":[{"url":"ombCategory","valueCoding":{"system":"urn:oid:2.16.840.1.113883.6.238","code":"2135-2","display":"Hispanic or Latino","userSelected":true}},{"url":"text","valueString":"Hispanic or Latino"}]}],"identifier":[{"type":{"coding":[{"system":"http://terminology.hl7.org/CodeSystem/v2-0203","code":"MR"}]},"system":"https://bonnie-fhir.healthit.gov/","value":"6129134c02c62a011f2e70ac"}],"active":true,"name":[{"use":"usual","family":"DENEXPass","given":["CMOdurED_ED=1hrNoObsBFEnc"]}],"gender":"male","birthDate":"1995-08-21"},"request":{"method":"PUT","url":"Patient/65ef54b4-48ea-4fc0-a9a7-79b3be807393"}},{"fullUrl":"https://madie.cms.gov/Encounter/ffe0b2a1-2349-480d-864e-63390e1b35db","resource":{"resourceType":"Encounter","id":"ffe0b2a1-2349-480d-864e-63390e1b35db","meta":{"profile":["http://hl7.org/fhir/us/qicore/StructureDefinition/qicore-encounter"]},"status":"finished","class":{"system":"http://terminology.hl7.org/CodeSystem/v3-ActCode","code":"EMER","display":"emergency","userSelected":true},"type":[{"coding":[{"system":"http://snomed.info/sct","code":"4525004"}]}],"subject":{"reference":"Patient/65ef54b4-48ea-4fc0-a9a7-79b3be807393"},"period":{"start":"2026-10-10T09:30:00.000+00:00","end":"2026-10-10T10:30:00.000+00:00"},"length":{"value":0,"unit":"days"}},"request":{"method":"PUT","url":"Encounter/ffe0b2a1-2349-480d-864e-63390e1b35db"}},{"fullUrl":"https://madie.cms.gov/Encounter/d8117085-5f6d-4068-a7f0-3ef1020dcefb","resource":{"resourceType":"Encounter","id":"d8117085-5f6d-4068-a7f0-3ef1020dcefb","meta":{"profile":["http://hl7.org/fhir/us/qicore/StructureDefinition/qicore-encounter"]},"status":"finished","class":{"system":"http://terminology.hl7.org/CodeSystem/v3-ActCode","code":"IMP","display":"inpatient encounter","userSelected":true},"type":[{"coding":[{"system":"http://snomed.info/sct","code":"32485007"}]}],"subject":{"reference":"Patient/65ef54b4-48ea-4fc0-a9a7-79b3be807393"},"period":{"start":"2026-10-10T11:30:00.000+00:00","end":"2026-10-12T11:30:00.000+00:00"},"length":{"value":2,"unit":"days"},"diagnosis":[{"condition":{"reference":"Condition/8b389dca-7beb-42c7-a10e-c01aded76462"},"use":{"coding":[{"system":"http://terminology.hl7.org/CodeSystem/diagnosis-role","code":"billing","display":"Billing"}]},"rank":1}]},"request":{"method":"PUT","url":"Encounter/d8117085-5f6d-4068-a7f0-3ef1020dcefb"}},{"fullUrl":"https://madie.cms.gov/ServiceRequest/2b5f25f1-9a18-4714-b708-4d060461941c","resource":{"resourceType":"ServiceRequest","id":"2b5f25f1-9a18-4714-b708-4d060461941c","meta":{"profile":["http://hl7.org/fhir/us/qicore/StructureDefinition/qicore-servicerequest"]},"status":"active","intent":"order","code":{"coding":[{"system":"http://snomed.info/sct","code":"133918004"}]},"subject":{"reference":"Patient/65ef54b4-48ea-4fc0-a9a7-79b3be807393"},"authoredOn":"2026-10-10T09:30:00.000+00:00"},"request":{"method":"PUT","url":"ServiceRequest/2b5f25f1-9a18-4714-b708-4d060461941c"}},{"fullUrl":"https://madie.cms.gov/Condition/8b389dca-7beb-42c7-a10e-c01aded76462","resource":{"resourceType":"Condition","id":"8b389dca-7beb-42c7-a10e-c01aded76462","meta":{"profile":["http://hl7.org/fhir/us/qicore/StructureDefinition/qicore-condition"]},"clinicalStatus":{"coding":[{"system":"http://terminology.hl7.org/CodeSystem/condition-clinical","code":"active"}]},"verificationStatus":{"coding":[{"system":"http://terminology.hl7.org/CodeSystem/condition-ver-status","code":"confirmed"}]},"category":[{"coding":[{"system":"http://terminology.hl7.org/CodeSystem/condition-category","code":"encounter-diagnosis","display":"Encounter Diagnosis"}]}],"code":{"coding":[{"system":"http://snomed.info/sct","version":"2020-09","code":"111297002","display":"Nonparalytic stroke (disorder)","userSelected":true}]},"subject":{"reference":"Patient/65ef54b4-48ea-4fc0-a9a7-79b3be807393"},"recordedDate":"2026-07-14T08:00:00.000+00:00"},"request":{"method":"PUT","url":"Condition/8b389dca-7beb-42c7-a10e-c01aded76462"}},{"fullUrl":"https://madie.cms.gov/Coverage/25f343ce-a4d7-4450-874d-b6d799d3e08a","resource":{"resourceType":"Coverage","id":"25f343ce-a4d7-4450-874d-b6d799d3e08a","meta":{"profile":["http://hl7.org/fhir/us/qicore/StructureDefinition/qicore-coverage"]},"status":"active","beneficiary":{"reference":"Patient/65ef54b4-48ea-4fc0-a9a7-79b3be807393"},"payor":[{"reference":"Organization/db141f66-a1cc-407b-9e95-adac27adee14"}]},"request":{"method":"PUT","url":"Coverage/25f343ce-a4d7-4450-874d-b6d799d3e08a"}},{"fullUrl":"https://madie.cms.gov/Organization/60e4176a-e4f4-44c9-ade9-88d31304771d","resource":{"resourceType":"Organization","id":"db141f66-a1cc-407b-9e95-adac27adee14","meta":{"profile":["http://hl7.org/fhir/us/qicore/StructureDefinition/qicore-organization"]},"identifier":[{"use":"temp","system":"urn:oid:2.16.840.1.113883.4.4","value":"21-3259825"}],"active":true,"type":[{"coding":[{"system":"http://terminology.hl7.org/CodeSystem/organization-type","code":"pay","display":"Payer"}]}],"name":"Blue Cross Blue Shield of Texas","telecom":[{"system":"phone","value":"(+1) 972-766-6900"}],"address":[{"use":"billing","type":"postal","line":["P.O. Box 660044"],"city":"Dallas","state":"TX","postalCode":"75266-0044","country":"USA"}]},"request":{"method":"PUT","url":"Organization/db141f66-a1cc-407b-9e95-adac27adee14"}},{"fullUrl":"https://madie.cms.gov/MeasureReport/f83b02b6-1422-41b5-b0ad-c7850eded5bf","resource":{"resourceType":"MeasureReport","id":"f83b02b6-1422-41b5-b0ad-c7850eded5bf","meta":{"profile":["http://hl7.org/fhir/us/cqfmeasures/StructureDefinition/test-case-cqfm"]},"contained":[{"resourceType":"Parameters","id":"6fcf0cb1-af38-49ef-9511-1af153f1dd3f-parameters","parameter":[{"name":"subject","valueString":"65ef54b4-48ea-4fc0-a9a7-79b3be807393"}]}],"extension":[{"url":"http://hl7.org/fhir/us/cqfmeasures/StructureDefinition/cqfm-inputParameters","valueReference":{"reference":"#6fcf0cb1-af38-49ef-9511-1af153f1dd3f-parameters"}},{"url":"http://hl7.org/fhir/us/cqfmeasures/StructureDefinition/cqfm-testCaseDescription","valueMarkdown":"Patient receives CMO during ED. ED ends 60 minute before inpatient encounter start. No Observation. Testing day of operator with HospitalizationWithObservation function."}],"modifierExtension":[{"url":"http://hl7.org/fhir/us/cqfmeasures/StructureDefinition/cqfm-isTestCase","valueBoolean":true}],"status":"complete","type":"individual","measure":"https://madie.cms.gov/Measure/CMS104FHIRSTKDCAntithrombotic","period":{"start":"2026-01-01","end":"2026-12-31"},"group":[{"population":[{"code":{"coding":[{"system":"http://terminology.hl7.org/CodeSystem/measure-population","code":"initial-population","display":"Initial Population"}]},"count":1},{"code":{"coding":[{"system":"http://terminology.hl7.org/CodeSystem/measure-population","code":"denominator","display":"Denominator"}]},"count":1},{"code":{"coding":[{"system":"http://terminology.hl7.org/CodeSystem/measure-population","code":"denominator-exclusion","display":"Denominator Exclusion"}]},"count":1},{"code":{"coding":[{"system":"http://terminology.hl7.org/CodeSystem/measure-population","code":"numerator","display":"Numerator"}]},"count":0},{"code":{"coding":[{"system":"http://terminology.hl7.org/CodeSystem/measure-population","code":"denominator-exception","display":"Denominator Exception"}]},"count":0}]}]},"request":{"method":"PUT","url":"MeasureReport/f83b02b6-1422-41b5-b0ad-c7850eded5bf"}}]}