{
  "resourceType": "Bundle",
  "id": "9761313461351313",
  "type": "transaction",
  "entry": [ {
    "fullUrl": "https://madie.cms.gov/Patient/ed37e316-c721-4a98-91d7-862f5ece7187",
    "resource": {
      "resourceType": "Patient",
      "id": "ed37e316-c721-4a98-91d7-862f5ece7187",
      "meta": {
        "profile": [ "http://hl7.org/fhir/us/qicore/StructureDefinition/qicore-patient" ]
      },
      "extension": [ {
        "url": "http://hl7.org/fhir/us/core/StructureDefinition/us-core-race",
        "extension": [ {
          "url": "ombCategory",
          "valueCoding": {
            "system": "urn:oid:2.16.840.1.113883.6.238",
            "code": "2054-5",
            "display": "Black or African American",
            "userSelected": true
          }
        }, {
          "url": "text",
          "valueString": "Black or African American"
        } ]
      }, {
        "url": "http://hl7.org/fhir/us/core/StructureDefinition/us-core-ethnicity",
        "extension": [ {
          "url": "ombCategory",
          "valueCoding": {
            "system": "urn:oid:2.16.840.1.113883.6.238",
            "code": "2135-2",
            "display": "Hispanic or Latino",
            "userSelected": true
          }
        }, {
          "url": "text",
          "valueString": "Hispanic or Latino"
        } ]
      } ],
      "identifier": [ {
        "type": {
          "coding": [ {
            "system": "http://terminology.hl7.org/CodeSystem/v2-0203",
            "code": "MR"
          } ]
        },
        "system": "https://bonnie-fhir.healthit.gov/",
        "value": "4687683516442"
      } ],
      "name": [ {
        "family": "DENEXPass",
        "given": [ "HeartTransplPriorMP" ]
      } ],
      "gender": "male",
      "birthDate": "1968-06-14"
    },
    "request": {
      "method": "POST",
      "url": "Patient/ed37e316-c721-4a98-91d7-862f5ece7187"
    }
  }, {
    "fullUrl": "https://madie.cms.gov/Encounter/461351313131",
    "resource": {
      "resourceType": "Encounter",
      "id": "461351313131",
      "meta": {
        "profile": [ "http://hl7.org/fhir/us/qicore/StructureDefinition/qicore-encounter" ]
      },
      "status": "finished",
      "class": {
        "system": "http://terminology.hl7.org/CodeSystem/v3-ActCode",
        "code": "AMB",
        "display": "ambulatory"
      },
      "type": [ {
        "coding": [ {
          "system": "http://snomed.info/sct",
          "version": "http://snomed.info/sct/731000124108/version/202303",
          "code": "185463005",
          "display": "Visit out of hours (procedure)"
        } ]
      } ],
      "subject": {
        "reference": "Patient/ed37e316-c721-4a98-91d7-862f5ece7187"
      },
      "period": {
        "start": "2025-03-31T08:00:00.000+00:00",
        "end": "2025-03-31T08:15:00.000+00:00"
      }
    },
    "request": {
      "method": "POST",
      "url": "Encounter/461351313131"
    }
  }, {
    "fullUrl": "https://madie.cms.gov/Encounter/1354651313135",
    "resource": {
      "resourceType": "Encounter",
      "id": "1354651313135",
      "meta": {
        "profile": [ "http://hl7.org/fhir/us/qicore/StructureDefinition/qicore-encounter" ]
      },
      "status": "finished",
      "class": {
        "system": "http://terminology.hl7.org/CodeSystem/v3-ActCode",
        "code": "AMB",
        "display": "ambulatory"
      },
      "type": [ {
        "coding": [ {
          "system": "http://snomed.info/sct",
          "version": "http://snomed.info/sct/731000124108/version/202303",
          "code": "185463005",
          "display": "Visit out of hours (procedure)"
        } ]
      } ],
      "subject": {
        "reference": "Patient/ed37e316-c721-4a98-91d7-862f5ece7187"
      },
      "period": {
        "start": "2025-05-15T08:00:00.000+00:00",
        "end": "2025-05-15T08:15:00.000+00:00"
      }
    },
    "request": {
      "method": "POST",
      "url": "Encounter/1354651313135"
    }
  }, {
    "fullUrl": "https://madie.cms.gov/Condition/6846841646",
    "resource": {
      "resourceType": "Condition",
      "id": "6846841646",
      "meta": {
        "profile": [ "http://hl7.org/fhir/us/qicore/StructureDefinition/qicore-condition" ]
      },
      "clinicalStatus": {
        "coding": [ {
          "system": "http://terminology.hl7.org/CodeSystem/condition-clinical",
          "code": "active",
          "display": "active"
        } ]
      },
      "verificationStatus": {
        "coding": [ {
          "system": "http://terminology.hl7.org/CodeSystem/condition-ver-status",
          "code": "confirmed",
          "display": "Confirmed"
        } ]
      },
      "category": [ {
        "coding": [ {
          "system": "http://terminology.hl7.org/CodeSystem/condition-category",
          "code": "problem-list-item",
          "display": "Problem List Item"
        } ]
      } ],
      "code": {
        "coding": [ {
          "system": "http://snomed.info/sct",
          "version": "http://snomed.info/sct/731000124108/version/202303",
          "code": "10091002",
          "display": "High output heart failure (disorder)"
        } ]
      },
      "subject": {
        "reference": "Patient/ed37e316-c721-4a98-91d7-862f5ece7187"
      },
      "onsetPeriod": {
        "start": "2024-05-17T08:00:00.000+00:00"
      }
    },
    "request": {
      "method": "POST",
      "url": "Condition/6846841646"
    }
  }, {
    "fullUrl": "https://madie.cms.gov/Condition/68468316646787",
    "resource": {
      "resourceType": "Condition",
      "id": "68468316646787",
      "meta": {
        "profile": [ "http://hl7.org/fhir/us/qicore/StructureDefinition/qicore-condition" ]
      },
      "clinicalStatus": {
        "coding": [ {
          "system": "http://terminology.hl7.org/CodeSystem/condition-clinical",
          "code": "active",
          "display": "Active"
        } ]
      },
      "verificationStatus": {
        "coding": [ {
          "system": "http://terminology.hl7.org/CodeSystem/condition-ver-status",
          "code": "confirmed",
          "display": "Confirmed"
        } ]
      },
      "category": [ {
        "coding": [ {
          "system": "http://terminology.hl7.org/CodeSystem/condition-category",
          "code": "problem-list-item",
          "display": "Problem List Item"
        } ]
      } ],
      "code": {
        "coding": [ {
          "system": "http://snomed.info/sct",
          "version": "http://snomed.info/sct/731000124108/version/202303",
          "code": "981000124106",
          "display": "Moderate left ventricular systolic dysfunction (disorder)"
        } ]
      },
      "subject": {
        "reference": "Patient/ed37e316-c721-4a98-91d7-862f5ece7187"
      },
      "onsetPeriod": {
        "start": "2025-03-25T08:00:00.000+00:00",
        "end": "2025-03-30T08:15:00.000+00:00"
      }
    },
    "request": {
      "method": "POST",
      "url": "Condition/68468316646787"
    }
  }, {
    "fullUrl": "https://madie.cms.gov/Procedure/79876135313",
    "resource": {
      "resourceType": "Procedure",
      "id": "79876135313",
      "meta": {
        "profile": [ "http://hl7.org/fhir/us/qicore/StructureDefinition/qicore-procedure" ]
      },
      "extension": [ {
        "url": "http://hl7.org/fhir/us/qicore/StructureDefinition/qicore-recorded",
        "valueDateTime": "2024-08-04T08:00:00.000+00:00"
      } ],
      "status": "completed",
      "code": {
        "coding": [ {
          "system": "http://snomed.info/sct",
          "version": "http://snomed.info/sct/731000124108/version/202303",
          "code": "174803001",
          "display": "Revision of transplantation of heart and lung (procedure)"
        } ]
      },
      "subject": {
        "reference": "Patient/ed37e316-c721-4a98-91d7-862f5ece7187"
      },
      "performedPeriod": {
        "start": "2024-12-31T23:59:59.999+00:00",
        "end": "2025-01-01T01:30:00.000+00:00"
      }
    },
    "request": {
      "method": "POST",
      "url": "Procedure/79876135313"
    }
  }, {
    "fullUrl": "https://madie.cms.gov/MeasureReport/654aa6c5-4a51-4bbd-8bda-5ff2cd5216aa",
    "resource": {
      "resourceType": "MeasureReport",
      "id": "654aa6c5-4a51-4bbd-8bda-5ff2cd5216aa",
      "meta": {
        "profile": [ "http://hl7.org/fhir/us/cqfmeasures/StructureDefinition/test-case-cqfm" ]
      },
      "contained": [ {
        "resourceType": "Parameters",
        "id": "602bea7b-5c5d-4328-82bf-e8225ecb1fa5-parameters",
        "parameter": [ {
          "name": "subject",
          "valueString": "ed37e316-c721-4a98-91d7-862f5ece7187"
        } ]
      } ],
      "extension": [ {
        "url": "http://hl7.org/fhir/us/cqfmeasures/StructureDefinition/cqfm-inputParameters",
        "valueReference": {
          "reference": "#602bea7b-5c5d-4328-82bf-e8225ecb1fa5-parameters"
        }
      }, {
        "url": "http://hl7.org/fhir/us/cqfmeasures/StructureDefinition/cqfm-testCaseDescription",
        "valueMarkdown": "Patient with HF diagnosis and LVSD encounters meets denominator exclusion for having a heart transplant prior to MP."
      } ],
      "modifierExtension": [ {
        "url": "http://hl7.org/fhir/us/cqfmeasures/StructureDefinition/cqfm-isTestCase",
        "valueBoolean": true
      } ],
      "status": "complete",
      "type": "individual",
      "measure": "https://madie.cms.gov/Measure/HFACEIorARBorARNIforLVSDFHIR",
      "period": {
        "start": "2025-01-01",
        "end": "2025-12-31"
      },
      "group": [ {
        "population": [ {
          "code": {
            "coding": [ {
              "system": "http://terminology.hl7.org/CodeSystem/measure-population",
              "code": "initial-population",
              "display": "Initial Population"
            } ]
          },
          "count": 1
        }, {
          "code": {
            "coding": [ {
              "system": "http://terminology.hl7.org/CodeSystem/measure-population",
              "code": "denominator",
              "display": "Denominator"
            } ]
          },
          "count": 1
        }, {
          "code": {
            "coding": [ {
              "system": "http://terminology.hl7.org/CodeSystem/measure-population",
              "code": "denominator-exclusion",
              "display": "Denominator Exclusion"
            } ]
          },
          "count": 1
        }, {
          "code": {
            "coding": [ {
              "system": "http://terminology.hl7.org/CodeSystem/measure-population",
              "code": "denominator-exception",
              "display": "Denominator Exception"
            } ]
          },
          "count": 0
        }, {
          "code": {
            "coding": [ {
              "system": "http://terminology.hl7.org/CodeSystem/measure-population",
              "code": "numerator",
              "display": "Numerator"
            } ]
          },
          "count": 0
        } ]
      } ],
      "evaluatedResource": [ {
        "reference": "https://madie.cms.gov/Patient/ed37e316-c721-4a98-91d7-862f5ece7187"
      }, {
        "reference": "https://madie.cms.gov/Encounter/461351313131"
      }, {
        "reference": "https://madie.cms.gov/Encounter/1354651313135"
      }, {
        "reference": "https://madie.cms.gov/Condition/6846841646"
      }, {
        "reference": "https://madie.cms.gov/Condition/68468316646787"
      }, {
        "reference": "https://madie.cms.gov/Procedure/79876135313"
      } ]
    },
    "request": {
      "method": "POST",
      "url": "MeasureReport/654aa6c5-4a51-4bbd-8bda-5ff2cd5216aa"
    }
  } ]
}