{"resourceType":"Bundle","id":"tests-e8e62dbf-ce54-4f04-b2d9-f574b8ded2c4-bundle","type":"transaction","entry":[{"fullUrl":"https://madie.cms.gov/Patient/e8e62dbf-ce54-4f04-b2d9-f574b8ded2c4","resource":{"resourceType":"Patient","id":"e8e62dbf-ce54-4f04-b2d9-f574b8ded2c4","meta":{"profile":["http://hl7.org/fhir/us/qicore/StructureDefinition/qicore-patient"]},"text":{"status":"generated","div":"<div xmlns=\"http://www.w3.org/1999/xhtml\"><div class=\"hapiHeaderText\"> CMOdurDiffEDTestOccur <b>DENEXPASS </b></div><table class=\"hapiPropertyTable\"><tbody><tr><td>Identifier</td><td>8ca2b35206ea67637d1637609c7d085ff3b14c20bc19eae5b26464da239a5345</td></tr><tr><td>Date of birth</td><td><span>21 August 1994</span></td></tr></tbody></table></div>"},"extension":[{"url":"http://hl7.org/fhir/us/core/StructureDefinition/us-core-race","extension":[{"url":"ombCategory","valueCoding":{"system":"urn:oid:2.16.840.1.113883.6.238","code":"1002-5","display":"American Indian or Alaska Native","userSelected":true}},{"url":"text","valueString":"American Indian or Alaska Native"}]},{"url":"http://hl7.org/fhir/us/core/StructureDefinition/us-core-ethnicity","extension":[{"url":"ombCategory","valueCoding":{"system":"urn:oid:2.16.840.1.113883.6.238","code":"2135-2","display":"Hispanic or Latino","userSelected":true}},{"url":"text","valueString":"Hispanic or Latino"}]}],"identifier":[{"type":{"coding":[{"system":"http://terminology.hl7.org/CodeSystem/v2-0203","code":"MR"}]},"system":"https://bonnie-fhir.healthit.gov/","value":"6129135502c62a011f2e752c"}],"active":true,"name":[{"use":"usual","family":"DENEXFail","given":["CMOdurDiffEDTestOccur"]}],"gender":"male","birthDate":"1994-08-21"},"request":{"method":"PUT","url":"Patient/e8e62dbf-ce54-4f04-b2d9-f574b8ded2c4"}},{"fullUrl":"https://madie.cms.gov/Encounter/5ca4cde2b8484613a5552a66","resource":{"resourceType":"Encounter","id":"5ca4cde2b8484613a5552a66","meta":{"profile":["http://hl7.org/fhir/us/qicore/StructureDefinition/qicore-encounter"]},"status":"finished","class":{"system":"http://terminology.hl7.org/CodeSystem/v3-ActCode","code":"EMER","display":"emergency","userSelected":true},"type":[{"coding":[{"system":"http://snomed.info/sct","code":"4525004"}]}],"subject":{"reference":"Patient/e8e62dbf-ce54-4f04-b2d9-f574b8ded2c4"},"period":{"start":"2025-10-10T12:31:00.000+00:00","end":"2025-10-10T12:46:00.000+00:00"},"length":{"value":0.0,"unit":"days"}},"request":{"method":"PUT","url":"Encounter/5ca4cde2b8484613a5552a66"}},{"fullUrl":"https://madie.cms.gov/Encounter/5ca4cde2b8484613a5552a67","resource":{"resourceType":"Encounter","id":"5ca4cde2b8484613a5552a67","meta":{"profile":["http://hl7.org/fhir/us/qicore/StructureDefinition/qicore-encounter"]},"status":"finished","class":{"system":"http://terminology.hl7.org/CodeSystem/v3-ActCode","code":"EMER","display":"emergency","userSelected":true},"type":[{"coding":[{"system":"http://snomed.info/sct","code":"4525004"}]}],"subject":{"reference":"Patient/e8e62dbf-ce54-4f04-b2d9-f574b8ded2c4"},"period":{"start":"2025-10-11T10:30:00.000+00:00","end":"2025-10-11T11:30:00.000+00:00"},"length":{"value":0.0,"unit":"days"}},"request":{"method":"PUT","url":"Encounter/5ca4cde2b8484613a5552a67"}},{"fullUrl":"https://madie.cms.gov/Encounter/5ca4cde2b8484613a5552a68","resource":{"resourceType":"Encounter","id":"5ca4cde2b8484613a5552a68","meta":{"profile":["http://hl7.org/fhir/us/qicore/StructureDefinition/qicore-encounter"]},"status":"finished","class":{"system":"http://terminology.hl7.org/CodeSystem/v3-ActCode","code":"IMP","display":"inpatient encounter","userSelected":true},"type":[{"coding":[{"system":"http://snomed.info/sct","code":"32485007"}]}],"subject":{"reference":"Patient/e8e62dbf-ce54-4f04-b2d9-f574b8ded2c4"},"period":{"start":"2025-10-11T12:30:00.000+00:00","end":"2025-10-13T11:30:00.000+00:00"},"length":{"value":2.0,"unit":"days"},"diagnosis":[{"condition":{"reference":"Condition/ischemic-stroke-7ef9"},"use":{"coding":[{"system":"http://snomed.info/sct","code":"111297002","display":"Ischemic Stroke"}]},"rank":1}]},"request":{"method":"PUT","url":"Encounter/5ca4cde2b8484613a5552a68"}},{"fullUrl":"https://madie.cms.gov/ServiceRequest/5ca4cde2b8484613a5552a65","resource":{"resourceType":"ServiceRequest","id":"5ca4cde2b8484613a5552a65","meta":{"profile":["http://hl7.org/fhir/us/qicore/StructureDefinition/qicore-servicerequest"]},"status":"active","intent":"order","code":{"coding":[{"system":"http://snomed.info/sct","code":"133918004"}]},"subject":{"reference":"Patient/e8e62dbf-ce54-4f04-b2d9-f574b8ded2c4"},"authoredOn":"2025-10-11T12:31:00.000+00:00"},"request":{"method":"PUT","url":"ServiceRequest/5ca4cde2b8484613a5552a65"}},{"fullUrl":"https://madie.cms.gov/Condition/ischemic-stroke-7ef9","resource":{"resourceType":"Condition","id":"ischemic-stroke-7ef9","meta":{"profile":["http://hl7.org/fhir/us/qicore/StructureDefinition/qicore-condition"]},"clinicalStatus":{"coding":[{"system":"http://terminology.hl7.org/CodeSystem/condition-clinical","code":"active"}]},"verificationStatus":{"coding":[{"system":"http://terminology.hl7.org/CodeSystem/condition-ver-status","code":"confirmed"}]},"category":[{"coding":[{"system":"http://terminology.hl7.org/CodeSystem/condition-category","code":"encounter-diagnosis","display":"Encounter Diagnosis"}]}],"code":{"coding":[{"system":"http://snomed.info/sct","version":"2020-09","code":"111297002","display":"Nonparalytic stroke (disorder)","userSelected":true}]},"subject":{"reference":"Patient/e8e62dbf-ce54-4f04-b2d9-f574b8ded2c4"},"recordedDate":"2025-07-14T08:00:00.000+00:00"},"request":{"method":"PUT","url":"Condition/ischemic-stroke-7ef9"}},{"fullUrl":"https://madie.cms.gov/Coverage/1","resource":{"resourceType":"Coverage","id":"Coverage-1","meta":{"profile":["http://hl7.org/fhir/us/qicore/StructureDefinition/qicore-coverage"]},"status":"active","beneficiary":{"reference":"Patient/e8e62dbf-ce54-4f04-b2d9-f574b8ded2c4"},"payor":[{"reference":"Organization/Org-123456"}]},"request":{"method":"PUT","url":"Coverage/Coverage-1"}},{"fullUrl":"https://madie.cms.gov/Organization/123456","resource":{"resourceType":"Organization","id":"Org-123456","meta":{"profile":["http://hl7.org/fhir/us/qicore/StructureDefinition/qicore-organization"]},"identifier":[{"use":"temp","system":"urn:oid:2.16.840.1.113883.4.4","value":"21-3259825"}],"active":true,"type":[{"coding":[{"system":"http://terminology.hl7.org/CodeSystem/organization-type","code":"pay","display":"Payer"}]}],"name":"Blue Cross Blue Shield of Texas","telecom":[{"system":"phone","value":"(+1) 972-766-6900"}],"address":[{"use":"billing","type":"postal","line":["P.O. Box 660044"],"city":"Dallas","state":"TX","postalCode":"75266-0044","country":"USA"}]},"request":{"method":"PUT","url":"Organization/Org-123456"}},{"fullUrl":"https://madie.cms.gov/MeasureReport/331801e3-ae80-4fb3-a74b-a19812e635a0","resource":{"resourceType":"MeasureReport","id":"331801e3-ae80-4fb3-a74b-a19812e635a0","meta":{"profile":["http://hl7.org/fhir/us/cqfmeasures/StructureDefinition/test-case-cqfm"]},"contained":[{"resourceType":"Parameters","id":"8de76205-6ed0-4b73-9987-f789f9b7f267-parameters","parameter":[{"name":"subject","valueString":"e8e62dbf-ce54-4f04-b2d9-f574b8ded2c4"}]}],"extension":[{"url":"http://hl7.org/fhir/us/cqfmeasures/StructureDefinition/cqfm-inputParameters","valueReference":{"reference":"#8de76205-6ed0-4b73-9987-f789f9b7f267-parameters"}},{"url":"http://hl7.org/fhir/us/cqfmeasures/StructureDefinition/cqfm-testCaseDescription","valueMarkdown":"Patient receives CMO during inpatient encounter. No ED.  Observation ends 1 min before IP start. Testing day of operator with HospitalizationWithObservation function."}],"modifierExtension":[{"url":"http://hl7.org/fhir/us/cqfmeasures/StructureDefinition/cqfm-isTestCase","valueBoolean":true}],"status":"complete","type":"individual","measure":"https://madie.cms.gov/Measure/DischargedonAntithromboticTherapyFHIR","period":{"start":"2025-01-01","end":"2025-12-31"},"group":[{"population":[{"code":{"coding":[{"system":"http://terminology.hl7.org/CodeSystem/measure-population","code":"initial-population","display":"Initial Population"}]},"count":1},{"code":{"coding":[{"system":"http://terminology.hl7.org/CodeSystem/measure-population","code":"denominator","display":"Denominator"}]},"count":1},{"code":{"coding":[{"system":"http://terminology.hl7.org/CodeSystem/measure-population","code":"denominator-exclusion","display":"Denominator Exclusion"}]},"count":1},{"code":{"coding":[{"system":"http://terminology.hl7.org/CodeSystem/measure-population","code":"numerator","display":"Numerator"}]},"count":0},{"code":{"coding":[{"system":"http://terminology.hl7.org/CodeSystem/measure-population","code":"denominator-exception","display":"Denominator Exception"}]},"count":0}]}],"evaluatedResource":[{"reference":"Patient/e8e62dbf-ce54-4f04-b2d9-f574b8ded2c4"},{"reference":"Encounter/5ca4cde2b8484613a5552a66"},{"reference":"Encounter/5ca4cde2b8484613a5552a67"},{"reference":"Encounter/5ca4cde2b8484613a5552a68"},{"reference":"ServiceRequest/5ca4cde2b8484613a5552a65"},{"reference":"Condition/ischemic-stroke-7ef9"},{"reference":"Coverage/Coverage-1"},{"reference":"Organization/Org-123456"}]},"request":{"method":"PUT","url":"MeasureReport/331801e3-ae80-4fb3-a74b-a19812e635a0"}}]}