{"resourceType":"Bundle","id":"tests-52a258e1-0a79-4bb7-8f50-1aa519aa4e00-bundle","type":"transaction","entry":[{"fullUrl":"https://madie.cms.gov/Patient/52a258e1-0a79-4bb7-8f50-1aa519aa4e00","resource":{"resourceType":"Patient","id":"52a258e1-0a79-4bb7-8f50-1aa519aa4e00","meta":{"profile":["http://hl7.org/fhir/us/qicore/StructureDefinition/qicore-patient"]},"text":{"status":"generated","div":"<div xmlns=\"http://www.w3.org/1999/xhtml\"><div class=\"hapiHeaderText\">CMOdurED_ED&lt;1hrObs&lt;1hrBFEnc <b>DENEXPASS </b></div><table class=\"hapiPropertyTable\"><tbody><tr><td>Identifier</td><td>9f33229f87c10a35f78ce016aca297879ccda928800ebb32cb3005131188e0c3</td></tr><tr><td>Date of birth</td><td><span>21 August 1994</span></td></tr></tbody></table></div>"},"extension":[{"url":"http://hl7.org/fhir/us/core/StructureDefinition/us-core-race","extension":[{"url":"ombCategory","valueCoding":{"system":"urn:oid:2.16.840.1.113883.6.238","code":"1002-5","display":"American Indian or Alaska Native","userSelected":true}},{"url":"text","valueString":"American Indian or Alaska Native"}]},{"url":"http://hl7.org/fhir/us/core/StructureDefinition/us-core-ethnicity","extension":[{"url":"ombCategory","valueCoding":{"system":"urn:oid:2.16.840.1.113883.6.238","code":"2135-2","display":"Hispanic or Latino","userSelected":true}},{"url":"text","valueString":"Hispanic or Latino"}]}],"identifier":[{"type":{"coding":[{"system":"http://terminology.hl7.org/CodeSystem/v2-0203","code":"MR"}]},"system":"https://bonnie-fhir.healthit.gov/","value":"6129134d02c62a011f2e7130"}],"active":true,"name":[{"use":"usual","family":"DENEXPass","given":["CMOdurED_ED<1hrObs<1hrBFEnc"]}],"gender":"male","birthDate":"1994-08-21"},"request":{"method":"PUT","url":"Patient/52a258e1-0a79-4bb7-8f50-1aa519aa4e00"}},{"fullUrl":"https://madie.cms.gov/Encounter/5c954113b8484612c37f27f0","resource":{"resourceType":"Encounter","id":"f5199bb9-c185-4bf6-bff3-917eb5c9355a","meta":{"profile":["http://hl7.org/fhir/us/qicore/StructureDefinition/qicore-encounter"]},"status":"finished","class":{"system":"http://terminology.hl7.org/CodeSystem/v3-ActCode","code":"EMER","display":"emergency","userSelected":true},"type":[{"coding":[{"system":"http://snomed.info/sct","code":"4525004"}]}],"subject":{"reference":"Patient/52a258e1-0a79-4bb7-8f50-1aa519aa4e00"},"period":{"start":"2025-10-10T09:30:00.000+00:00","end":"2025-10-10T10:30:00.000+00:00"},"length":{"value":0,"unit":"days"}},"request":{"method":"PUT","url":"Encounter/f5199bb9-c185-4bf6-bff3-917eb5c9355a"}},{"fullUrl":"https://madie.cms.gov/Encounter/5c954113b8484612c37f27f1","resource":{"resourceType":"Encounter","id":"1d05466f-3be8-4784-9511-9bad34c8aa2b","meta":{"profile":["http://hl7.org/fhir/us/qicore/StructureDefinition/qicore-encounter"]},"status":"finished","class":{"system":"http://terminology.hl7.org/CodeSystem/v3-ActCode","code":"OBSENC","display":"observation encounter","userSelected":true},"type":[{"coding":[{"system":"http://snomed.info/sct","code":"448851000124103"}]}],"subject":{"reference":"Patient/52a258e1-0a79-4bb7-8f50-1aa519aa4e00"},"period":{"start":"2025-10-10T10:31:00.000+00:00","end":"2025-10-10T10:35:00.000+00:00"},"length":{"value":0,"unit":"days"}},"request":{"method":"PUT","url":"Encounter/1d05466f-3be8-4784-9511-9bad34c8aa2b"}},{"fullUrl":"https://madie.cms.gov/Encounter/5c954113b8484612c37f27f2","resource":{"resourceType":"Encounter","id":"fa4e5ecb-aee7-4f9b-a3fd-102b59f16214","meta":{"profile":["http://hl7.org/fhir/us/qicore/StructureDefinition/qicore-encounter"]},"status":"finished","class":{"system":"http://terminology.hl7.org/CodeSystem/v3-ActCode","code":"IMP","display":"inpatient encounter","userSelected":true},"type":[{"coding":[{"system":"http://snomed.info/sct","code":"32485007"}]}],"subject":{"reference":"Patient/52a258e1-0a79-4bb7-8f50-1aa519aa4e00"},"period":{"start":"2025-10-10T10:36:00.000+00:00","end":"2025-10-12T11:30:00.000+00:00"},"length":{"value":2,"unit":"days"},"diagnosis":[{"condition":{"reference":"Condition/ischemic-stroke-7efe"},"use":{"coding":[{"system":"http://terminology.hl7.org/CodeSystem/diagnosis-role","code":"billing","display":"Billing"}]},"rank":1}]},"request":{"method":"PUT","url":"Encounter/fa4e5ecb-aee7-4f9b-a3fd-102b59f16214"}},{"fullUrl":"https://madie.cms.gov/ServiceRequest/5c954113b8484612c37f27f4","resource":{"resourceType":"ServiceRequest","id":"7fbb80af-496d-4df3-955a-a8fa11f6125b","meta":{"profile":["http://hl7.org/fhir/us/qicore/StructureDefinition/qicore-servicerequest"]},"status":"active","intent":"order","code":{"coding":[{"system":"http://snomed.info/sct","code":"133918004"}]},"subject":{"reference":"Patient/52a258e1-0a79-4bb7-8f50-1aa519aa4e00"},"authoredOn":"2025-10-10T09:30:00.000+00:00"},"request":{"method":"PUT","url":"ServiceRequest/7fbb80af-496d-4df3-955a-a8fa11f6125b"}},{"fullUrl":"https://madie.cms.gov/Condition/ischemic-stroke-7efe","resource":{"resourceType":"Condition","id":"33f35887-bc33-48db-bc63-945746808af8","meta":{"profile":["http://hl7.org/fhir/us/qicore/StructureDefinition/qicore-condition"]},"clinicalStatus":{"coding":[{"system":"http://terminology.hl7.org/CodeSystem/condition-clinical","code":"active"}]},"verificationStatus":{"coding":[{"system":"http://terminology.hl7.org/CodeSystem/condition-ver-status","code":"confirmed"}]},"category":[{"coding":[{"system":"http://terminology.hl7.org/CodeSystem/condition-category","code":"encounter-diagnosis","display":"Encounter Diagnosis"}]}],"code":{"coding":[{"system":"http://snomed.info/sct","version":"2020-09","code":"111297002","display":"Nonparalytic stroke (disorder)","userSelected":true}]},"subject":{"reference":"Patient/52a258e1-0a79-4bb7-8f50-1aa519aa4e00"},"recordedDate":"2025-07-14T08:00:00.000+00:00"},"request":{"method":"PUT","url":"Condition/33f35887-bc33-48db-bc63-945746808af8"}},{"fullUrl":"https://madie.cms.gov/Coverage/1","resource":{"resourceType":"Coverage","id":"6ebdd0a0-a201-49d6-98e4-27bed4f4cf1d","meta":{"profile":["http://hl7.org/fhir/us/qicore/StructureDefinition/qicore-coverage"]},"status":"active","beneficiary":{"reference":"Patient/52a258e1-0a79-4bb7-8f50-1aa519aa4e00"},"payor":[{"reference":"Organization/4b5a882f-1f43-485c-85c6-f5ad2337d5b1"}]},"request":{"method":"PUT","url":"Coverage/6ebdd0a0-a201-49d6-98e4-27bed4f4cf1d"}},{"fullUrl":"https://madie.cms.gov/Organization/123456","resource":{"resourceType":"Organization","id":"4b5a882f-1f43-485c-85c6-f5ad2337d5b1","meta":{"profile":["http://hl7.org/fhir/us/qicore/StructureDefinition/qicore-organization"]},"identifier":[{"use":"temp","system":"urn:oid:2.16.840.1.113883.4.4","value":"21-3259825"}],"active":true,"type":[{"coding":[{"system":"http://terminology.hl7.org/CodeSystem/organization-type","code":"pay","display":"Payer"}]}],"name":"Blue Cross Blue Shield of Texas","telecom":[{"system":"phone","value":"(+1) 972-766-6900"}],"address":[{"use":"billing","type":"postal","line":["P.O. Box 660044"],"city":"Dallas","state":"TX","postalCode":"75266-0044","country":"USA"}]},"request":{"method":"PUT","url":"Organization/4b5a882f-1f43-485c-85c6-f5ad2337d5b1"}},{"fullUrl":"https://madie.cms.gov/MeasureReport/46543b41-8bf5-4d21-a6ff-780bcdf567bb","resource":{"resourceType":"MeasureReport","id":"46543b41-8bf5-4d21-a6ff-780bcdf567bb","meta":{"profile":["http://hl7.org/fhir/us/cqfmeasures/StructureDefinition/test-case-cqfm"]},"contained":[{"resourceType":"Parameters","id":"5a70e707-6b0f-4563-8ca5-390e1562bd05-parameters","parameter":[{"name":"subject","valueString":"52a258e1-0a79-4bb7-8f50-1aa519aa4e00"}]}],"extension":[{"url":"http://hl7.org/fhir/us/cqfmeasures/StructureDefinition/cqfm-inputParameters","valueReference":{"reference":"#5a70e707-6b0f-4563-8ca5-390e1562bd05-parameters"}},{"url":"http://hl7.org/fhir/us/cqfmeasures/StructureDefinition/cqfm-testCaseDescription","valueMarkdown":"Patient receives CMO during ED. ED ends 1 minute before Observation. Obs ends 1 min before IP start. Testing day of operator with HospitalizationWithObservation function."}],"modifierExtension":[{"url":"http://hl7.org/fhir/us/cqfmeasures/StructureDefinition/cqfm-isTestCase","valueBoolean":true}],"status":"complete","type":"individual","measure":"https://madie.cms.gov/Measure/DischargedonAntithromboticTherapyFHIR","period":{"start":"2025-01-01","end":"2025-12-31"},"group":[{"population":[{"code":{"coding":[{"system":"http://terminology.hl7.org/CodeSystem/measure-population","code":"initial-population","display":"Initial Population"}]},"count":1},{"code":{"coding":[{"system":"http://terminology.hl7.org/CodeSystem/measure-population","code":"denominator","display":"Denominator"}]},"count":1},{"code":{"coding":[{"system":"http://terminology.hl7.org/CodeSystem/measure-population","code":"denominator-exclusion","display":"Denominator Exclusion"}]},"count":1},{"code":{"coding":[{"system":"http://terminology.hl7.org/CodeSystem/measure-population","code":"numerator","display":"Numerator"}]},"count":0},{"code":{"coding":[{"system":"http://terminology.hl7.org/CodeSystem/measure-population","code":"denominator-exception","display":"Denominator Exception"}]},"count":0}]}]},"request":{"method":"PUT","url":"MeasureReport/46543b41-8bf5-4d21-a6ff-780bcdf567bb"}}]}