{"resourceType":"Bundle","id":"tests-1498de63-ecb3-4ff2-89be-34af68ab7a84-bundle","type":"transaction","entry":[{"fullUrl":"https://madie.cms.gov/Patient/1498de63-ecb3-4ff2-89be-34af68ab7a84","resource":{"resourceType":"Patient","id":"1498de63-ecb3-4ff2-89be-34af68ab7a84","meta":{"profile":["http://hl7.org/fhir/us/qicore/StructureDefinition/qicore-patient"]},"text":{"status":"generated","div":"<div xmlns=\"http://www.w3.org/1999/xhtml\"><div class=\"hapiHeaderText\">CMOdurED_ED=1hrNoObsBFEnc <b>DENEXPASS </b></div><table class=\"hapiPropertyTable\"><tbody><tr><td>Identifier</td><td>670854918483ca8b7894283bd5cddbcf5037c5392991b8777bf3c4f78ed05f0b</td></tr><tr><td>Date of birth</td><td><span>18 September 1985</span></td></tr></tbody></table></div>"},"extension":[{"url":"http://hl7.org/fhir/us/core/StructureDefinition/us-core-race","extension":[{"url":"ombCategory","valueCoding":{"system":"urn:oid:2.16.840.1.113883.6.238","code":"1002-5","display":"American Indian or Alaska Native","userSelected":true}},{"url":"text","valueString":"American Indian or Alaska Native"}]},{"url":"http://hl7.org/fhir/us/core/StructureDefinition/us-core-ethnicity","extension":[{"url":"ombCategory","valueCoding":{"system":"urn:oid:2.16.840.1.113883.6.238","code":"2135-2","display":"Hispanic or Latino","userSelected":true}},{"url":"text","valueString":"Hispanic or Latino"}]}],"identifier":[{"type":{"coding":[{"system":"http://terminology.hl7.org/CodeSystem/v2-0203","code":"MR"}]},"system":"https://bonnie-fhir.healthit.gov/","value":"633c9d040968f8012250fca3"}],"active":true,"name":[{"use":"usual","family":"DENEXFail","given":["CMOdurEDEDEQ1hrNoObsBFEncdoNotPerform"]}],"gender":"female","birthDate":"1985-09-18"},"request":{"method":"PUT","url":"Patient/1498de63-ecb3-4ff2-89be-34af68ab7a84"}},{"fullUrl":"https://madie.cms.gov/Condition/5c953f97b848462de0ae414a","resource":{"resourceType":"Condition","id":"832e3990-4ee6-446c-876b-fb874afbb22b","meta":{"profile":["http://hl7.org/fhir/us/qicore/StructureDefinition/qicore-condition"]},"clinicalStatus":{"coding":[{"system":"http://terminology.hl7.org/CodeSystem/condition-clinical","code":"inactive"}]},"verificationStatus":{"coding":[{"system":"http://terminology.hl7.org/CodeSystem/condition-ver-status","code":"confirmed"}]},"category":[{"coding":[{"system":"http://terminology.hl7.org/CodeSystem/condition-category","code":"encounter-diagnosis","display":"Encounter Diagnosis"}]}],"code":{"coding":[{"system":"http://hl7.org/fhir/sid/icd-10-cm","code":"I48.20"},{"system":"http://hl7.org/fhir/sid/icd-10-cm","code":"I48.0"},{"system":"http://snomed.info/sct","code":"5370000"}]},"subject":{"reference":"Patient/1498de63-ecb3-4ff2-89be-34af68ab7a84"},"onsetDateTime":"2025-10-01T09:01:00.000Z","abatementDateTime":"2025-10-12T00:15:00.000Z"},"request":{"method":"PUT","url":"Condition/832e3990-4ee6-446c-876b-fb874afbb22b"}},{"fullUrl":"https://madie.cms.gov/Encounter/5c953f97b848462de0ae414b","resource":{"resourceType":"Encounter","id":"90b9b29a-66dd-4d5e-9970-56a11d16dc8b","meta":{"profile":["http://hl7.org/fhir/us/qicore/StructureDefinition/qicore-encounter"]},"status":"finished","class":{"system":"http://terminology.hl7.org/CodeSystem/v3-ActCode","code":"EMER","display":"emergency"},"type":[{"coding":[{"system":"http://snomed.info/sct","code":"4525004"}]}],"subject":{"reference":"Patient/1498de63-ecb3-4ff2-89be-34af68ab7a84"},"period":{"start":"2025-10-01T09:01:00.000Z","end":"2025-10-01T12:15:00.000Z"},"length":{"value":0,"unit":"days"}},"request":{"method":"PUT","url":"Encounter/90b9b29a-66dd-4d5e-9970-56a11d16dc8b"}},{"fullUrl":"https://madie.cms.gov/Encounter/5c953f97b848462de0ae414c","resource":{"resourceType":"Encounter","id":"69710978-fae9-41a6-8ea7-d85664e780f5","meta":{"profile":["http://hl7.org/fhir/us/qicore/StructureDefinition/qicore-encounter"]},"status":"finished","class":{"system":"http://terminology.hl7.org/CodeSystem/v3-ActCode","code":"IMP","display":"inpatient encounter"},"type":[{"coding":[{"system":"http://snomed.info/sct","code":"32485007"}]}],"subject":{"reference":"Patient/1498de63-ecb3-4ff2-89be-34af68ab7a84"},"period":{"start":"2025-10-01T13:15:00.000Z","end":"2025-10-12T00:15:00.000Z"},"length":{"value":11,"unit":"days"},"diagnosis":[{"condition":{"reference":"Condition/ischemic-stroke-1963"},"use":{"coding":[{"system":"http://terminology.hl7.org/CodeSystem/diagnosis-role","code":"billing","display":"Billing"}]},"rank":1}]},"request":{"method":"PUT","url":"Encounter/69710978-fae9-41a6-8ea7-d85664e780f5"}},{"fullUrl":"https://madie.cms.gov/ServiceRequest/5c953f97b848462de0ae414e","resource":{"resourceType":"ServiceRequest","id":"31051cc2-e894-462e-b0f8-41a2fcc8b438","meta":{"profile":["http://hl7.org/fhir/us/qicore/StructureDefinition/qicore-servicerequest"]},"status":"active","intent":"order","doNotPerform":true,"code":{"coding":[{"system":"http://snomed.info/sct","code":"133918004"}]},"subject":{"reference":"Patient/1498de63-ecb3-4ff2-89be-34af68ab7a84"},"authoredOn":"2025-10-01T09:15:00.000+00:00"},"request":{"method":"PUT","url":"ServiceRequest/31051cc2-e894-462e-b0f8-41a2fcc8b438"}},{"fullUrl":"https://madie.cms.gov/Coverage/5f2c53cf1c76ba5c99605789","resource":{"resourceType":"Coverage","id":"88bc80cc-a9f5-4c8b-b298-86c547621a8c","status":"active","beneficiary":{"reference":"Patient/1498de63-ecb3-4ff2-89be-34af68ab7a84"},"period":{"start":"1985-09-18T08:00:00.000Z"},"payor":[{"reference":"Organization/42846cc3-1db0-4bf7-b9ff-8b81fa6e835d"}]},"request":{"method":"PUT","url":"Coverage/88bc80cc-a9f5-4c8b-b298-86c547621a8c"}},{"fullUrl":"https://madie.cms.gov/Condition/ischemic-stroke-1963","resource":{"resourceType":"Condition","id":"c7da5639-a7f1-45b8-b2b0-c154afaa79cd","meta":{"profile":["http://hl7.org/fhir/us/qicore/StructureDefinition/qicore-condition"]},"clinicalStatus":{"coding":[{"system":"http://terminology.hl7.org/CodeSystem/condition-clinical","code":"active"}]},"verificationStatus":{"coding":[{"system":"http://terminology.hl7.org/CodeSystem/condition-ver-status","code":"confirmed"}]},"category":[{"coding":[{"system":"http://terminology.hl7.org/CodeSystem/condition-category","code":"encounter-diagnosis","display":"Encounter Diagnosis"}]}],"code":{"coding":[{"system":"http://snomed.info/sct","version":"2021-09","code":"111297002","display":"Nonparalytic stroke (disorder)","userSelected":true}]},"subject":{"reference":"Patient/1498de63-ecb3-4ff2-89be-34af68ab7a84"},"recordedDate":"2025-10-13T08:00:00.000+00:00"},"request":{"method":"PUT","url":"Condition/c7da5639-a7f1-45b8-b2b0-c154afaa79cd"}},{"fullUrl":"https://madie.cms.gov/Organization/123456","resource":{"resourceType":"Organization","id":"42846cc3-1db0-4bf7-b9ff-8b81fa6e835d","meta":{"profile":["http://hl7.org/fhir/us/qicore/StructureDefinition/qicore-organization"]},"identifier":[{"use":"temp","system":"urn:oid:2.16.840.1.113883.4.4","value":"21-3259825"}],"active":true,"type":[{"coding":[{"system":"http://terminology.hl7.org/CodeSystem/organization-type","code":"pay","display":"Payer"}]}],"name":"Blue Cross Blue Shield of Texas","telecom":[{"system":"phone","value":"(+1) 972-766-6900"}],"address":[{"use":"billing","type":"postal","line":["P.O. Box 660044"],"city":"Dallas","state":"TX","postalCode":"75266-0044","country":"USA"}]},"request":{"method":"PUT","url":"Organization/42846cc3-1db0-4bf7-b9ff-8b81fa6e835d"}},{"fullUrl":"https://madie.cms.gov/Practitioner/practitioner-123456","resource":{"resourceType":"Practitioner","id":"6f64eaba-3701-4b39-8de4-9b533d94df27","identifier":[{"system":"http://hl7.org/fhir/sid/us-npi","value":"123456"}],"name":[{"family":"Evil","prefix":["Dr"]}]},"request":{"method":"PUT","url":"Practitioner/6f64eaba-3701-4b39-8de4-9b533d94df27"}},{"fullUrl":"https://madie.cms.gov/MeasureReport/8867a5c0-c46e-4164-800b-5612e734eb4e","resource":{"resourceType":"MeasureReport","id":"8867a5c0-c46e-4164-800b-5612e734eb4e","meta":{"profile":["http://hl7.org/fhir/us/cqfmeasures/StructureDefinition/test-case-cqfm"]},"contained":[{"resourceType":"Parameters","id":"a137cb22-f96b-42ea-a3c7-ef16cac7e295-parameters","parameter":[{"name":"subject","valueString":"1498de63-ecb3-4ff2-89be-34af68ab7a84"}]}],"extension":[{"url":"http://hl7.org/fhir/us/cqfmeasures/StructureDefinition/cqfm-inputParameters","valueReference":{"reference":"#a137cb22-f96b-42ea-a3c7-ef16cac7e295-parameters"}},{"url":"http://hl7.org/fhir/us/cqfmeasures/StructureDefinition/cqfm-testCaseDescription","valueMarkdown":"Testing do not perform equal to true"}],"modifierExtension":[{"url":"http://hl7.org/fhir/us/cqfmeasures/StructureDefinition/cqfm-isTestCase","valueBoolean":true}],"status":"complete","type":"individual","measure":"https://madie.cms.gov/Measure/DischargedonAntithromboticTherapyFHIR","period":{"start":"2025-01-01","end":"2025-12-31"},"group":[{"population":[{"code":{"coding":[{"system":"http://terminology.hl7.org/CodeSystem/measure-population","code":"initial-population","display":"Initial Population"}]},"count":1},{"code":{"coding":[{"system":"http://terminology.hl7.org/CodeSystem/measure-population","code":"denominator","display":"Denominator"}]},"count":1},{"code":{"coding":[{"system":"http://terminology.hl7.org/CodeSystem/measure-population","code":"denominator-exclusion","display":"Denominator Exclusion"}]},"count":0},{"code":{"coding":[{"system":"http://terminology.hl7.org/CodeSystem/measure-population","code":"numerator","display":"Numerator"}]},"count":0},{"code":{"coding":[{"system":"http://terminology.hl7.org/CodeSystem/measure-population","code":"denominator-exception","display":"Denominator Exception"}]},"count":0}]}]},"request":{"method":"PUT","url":"MeasureReport/8867a5c0-c46e-4164-800b-5612e734eb4e"}}]}