{"resourceType":"Bundle","id":"tests-13407a0b-e10d-4475-bb26-595bba48048e-bundle","type":"transaction","entry":[{"fullUrl":"https://madie.cms.gov/Patient/13407a0b-e10d-4475-bb26-595bba48048e","resource":{"resourceType":"Patient","id":"13407a0b-e10d-4475-bb26-595bba48048e","meta":{"profile":["http://hl7.org/fhir/us/qicore/StructureDefinition/qicore-patient"]},"text":{"status":"generated","div":"<div xmlns=\"http://www.w3.org/1999/xhtml\"><div class=\"hapiHeaderText\">PrinDxIsHemoTestOccur <b>IPPASS </b></div><table class=\"hapiPropertyTable\"><tbody><tr><td>Identifier</td><td>806d413fb2fa08b993d6e1a8a54c2f9d28d9d085a84baf92003e11f3f8bc0d8c</td></tr><tr><td>Date of birth</td><td><span>21 August 1994</span></td></tr></tbody></table></div>"},"extension":[{"url":"http://hl7.org/fhir/us/core/StructureDefinition/us-core-race","extension":[{"url":"ombCategory","valueCoding":{"system":"urn:oid:2.16.840.1.113883.6.238","code":"1002-5","display":"American Indian or Alaska Native","userSelected":true}},{"url":"text","valueString":"American Indian or Alaska Native"}]},{"url":"http://hl7.org/fhir/us/core/StructureDefinition/us-core-ethnicity","extension":[{"url":"ombCategory","valueCoding":{"system":"urn:oid:2.16.840.1.113883.6.238","code":"2135-2","display":"Hispanic or Latino","userSelected":true}},{"url":"text","valueString":"Hispanic or Latino"}]}],"identifier":[{"type":{"coding":[{"system":"http://terminology.hl7.org/CodeSystem/v2-0203","code":"MR"}]},"system":"https://bonnie-fhir.healthit.gov/","value":"6129135602c62a011f2e7591"}],"active":true,"name":[{"use":"usual","family":"IPPass","given":["PrinDxIsHemoTestOccur"]}],"gender":"male","birthDate":"2003-08-21"},"request":{"method":"PUT","url":"Patient/13407a0b-e10d-4475-bb26-595bba48048e"}},{"fullUrl":"https://madie.cms.gov/Encounter/5cae493eb848462f6d818fc5","resource":{"resourceType":"Encounter","id":"5cae493eb848462f6d818fc5","meta":{"profile":["http://hl7.org/fhir/us/qicore/StructureDefinition/qicore-encounter"]},"status":"finished","class":{"system":"http://terminology.hl7.org/CodeSystem/v3-ActCode","code":"IMP","display":"inpatient encounter","userSelected":true},"type":[{"coding":[{"system":"http://snomed.info/sct","code":"183452005"}]}],"subject":{"reference":"Patient/13407a0b-e10d-4475-bb26-595bba48048e"},"period":{"start":"2025-08-20T08:00:00.000+00:00","end":"2025-08-20T08:15:00.000+00:00"},"length":{"value":0.0,"unit":"days"}},"request":{"method":"PUT","url":"Encounter/5cae493eb848462f6d818fc5"}},{"fullUrl":"https://madie.cms.gov/Encounter/5cae493eb848462f6d818fc6","resource":{"resourceType":"Encounter","id":"5cae493eb848462f6d818fc6","meta":{"profile":["http://hl7.org/fhir/us/qicore/StructureDefinition/qicore-encounter"]},"status":"finished","class":{"system":"http://terminology.hl7.org/CodeSystem/v3-ActCode","code":"IMP","display":"inpatient encounter","userSelected":true},"type":[{"coding":[{"system":"http://snomed.info/sct","code":"32485007"}]}],"subject":{"reference":"Patient/13407a0b-e10d-4475-bb26-595bba48048e"},"period":{"start":"2025-08-21T08:00:00.000+00:00","end":"2025-12-19T08:15:00.000+00:00"},"length":{"value":120.0,"unit":"days"},"diagnosis":[{"condition":{"reference":"Condition/hemorrhagic-stroke-7f22"},"use":{"coding":[{"system":"http://snomed.info/sct","code":"195155004","display":"Hemorrhagic Stroke"}]},"rank":1}]},"request":{"method":"PUT","url":"Encounter/5cae493eb848462f6d818fc6"}},{"fullUrl":"https://madie.cms.gov/Condition/hemorrhagic-stroke-7f22","resource":{"resourceType":"Condition","id":"hemorrhagic-stroke-7f22","meta":{"profile":["http://hl7.org/fhir/us/qicore/StructureDefinition/qicore-condition"]},"clinicalStatus":{"coding":[{"system":"http://terminology.hl7.org/CodeSystem/condition-clinical","code":"active"}]},"verificationStatus":{"coding":[{"system":"http://terminology.hl7.org/CodeSystem/condition-ver-status","code":"confirmed"}]},"category":[{"coding":[{"system":"http://terminology.hl7.org/CodeSystem/condition-category","code":"encounter-diagnosis","display":"Encounter Diagnosis"}]}],"code":{"coding":[{"system":"http://snomed.info/sct","version":"2020-09","code":"195155004","display":"Subarachnoid hemorrhage from carotid siphon and bifurcation (disorder)","userSelected":true}]},"subject":{"reference":"Patient/13407a0b-e10d-4475-bb26-595bba48048e"},"recordedDate":"2025-07-15T08:00:00.000+00:00"},"request":{"method":"PUT","url":"Condition/hemorrhagic-stroke-7f22"}},{"fullUrl":"https://madie.cms.gov/Coverage/1","resource":{"resourceType":"Coverage","id":"1","meta":{"profile":["http://hl7.org/fhir/us/qicore/StructureDefinition/qicore-coverage"]},"status":"active","beneficiary":{"reference":"Patient/13407a0b-e10d-4475-bb26-595bba48048e"},"payor":[{"reference":"Organization/Org-123456"}]},"request":{"method":"PUT","url":"Coverage/1"}},{"fullUrl":"https://madie.cms.gov/Organization/123456","resource":{"resourceType":"Organization","id":"Org-123456","meta":{"profile":["http://hl7.org/fhir/us/qicore/StructureDefinition/qicore-organization"]},"identifier":[{"use":"temp","system":"urn:oid:2.16.840.1.113883.4.4","value":"21-3259825"}],"active":true,"type":[{"coding":[{"system":"http://terminology.hl7.org/CodeSystem/organization-type","code":"pay","display":"Payer"}]}],"name":"Blue Cross Blue Shield of Texas","telecom":[{"system":"phone","value":"(+1) 972-766-6900"}],"address":[{"use":"billing","type":"postal","line":["P.O. Box 660044"],"city":"Dallas","state":"TX","postalCode":"75266-0044","country":"USA"}]},"request":{"method":"PUT","url":"Organization/Org-123456"}},{"fullUrl":"https://madie.cms.gov/MeasureReport/4b9d22df-906a-4274-aaa5-f3e1e68d2433","resource":{"resourceType":"MeasureReport","id":"4b9d22df-906a-4274-aaa5-f3e1e68d2433","meta":{"profile":["http://hl7.org/fhir/us/cqfmeasures/StructureDefinition/test-case-cqfm"]},"contained":[{"resourceType":"Parameters","id":"7bcc5fec-b6b0-4ded-886d-e6cfebd6cb11-parameters","parameter":[{"name":"subject","valueString":"13407a0b-e10d-4475-bb26-595bba48048e"}]}],"extension":[{"url":"http://hl7.org/fhir/us/cqfmeasures/StructureDefinition/cqfm-inputParameters","valueReference":{"reference":"#7bcc5fec-b6b0-4ded-886d-e6cfebd6cb11-parameters"}},{"url":"http://hl7.org/fhir/us/cqfmeasures/StructureDefinition/cqfm-testCaseDescription","valueMarkdown":"Patient is 18 with Encounter Inpatient (LOS 120 days) with principal diagnosis of hemorrhagic stroke.\n"}],"modifierExtension":[{"url":"http://hl7.org/fhir/us/cqfmeasures/StructureDefinition/cqfm-isTestCase","valueBoolean":true}],"status":"complete","type":"individual","measure":"https://madie.cms.gov/Measure/DischargedonAntithromboticTherapyFHIR","period":{"start":"2025-01-01","end":"2025-12-31"},"group":[{"population":[{"code":{"coding":[{"system":"http://terminology.hl7.org/CodeSystem/measure-population","code":"initial-population","display":"Initial Population"}]},"count":1},{"code":{"coding":[{"system":"http://terminology.hl7.org/CodeSystem/measure-population","code":"denominator","display":"Denominator"}]},"count":0},{"code":{"coding":[{"system":"http://terminology.hl7.org/CodeSystem/measure-population","code":"denominator-exclusion","display":"Denominator Exclusion"}]},"count":0},{"code":{"coding":[{"system":"http://terminology.hl7.org/CodeSystem/measure-population","code":"numerator","display":"Numerator"}]},"count":0},{"code":{"coding":[{"system":"http://terminology.hl7.org/CodeSystem/measure-population","code":"denominator-exception","display":"Denominator Exception"}]},"count":0}]}],"evaluatedResource":[{"reference":"Patient/13407a0b-e10d-4475-bb26-595bba48048e"},{"reference":"Encounter/5cae493eb848462f6d818fc5"},{"reference":"Encounter/5cae493eb848462f6d818fc6"},{"reference":"Condition/hemorrhagic-stroke-7f22"},{"reference":"Coverage/1"},{"reference":"Organization/Org-123456"}]},"request":{"method":"PUT","url":"MeasureReport/4b9d22df-906a-4274-aaa5-f3e1e68d2433"}}]}