{"resourceType":"Bundle","id":"tests-7c3ee345-c9da-4ce2-97e8-727de2e5023a-bundle","type":"transaction","entry":[{"fullUrl":"https://madie.cms.gov/Patient/7c3ee345-c9da-4ce2-97e8-727de2e5023a","resource":{"resourceType":"Patient","id":"7c3ee345-c9da-4ce2-97e8-727de2e5023a","meta":{"profile":["http://hl7.org/fhir/us/qicore/StructureDefinition/qicore-patient"]},"text":{"status":"generated","div":"<div xmlns=\"http://www.w3.org/1999/xhtml\"><div class=\"hapiHeaderText\">CMOdurED_ED=1hrObs=1hrBFEnc <b>DENEXPASS </b></div><table class=\"hapiPropertyTable\"><tbody><tr><td>Identifier</td><td>2af1bfa71528978fd91ee5e826bec671ef1ea1688c1d7786aa6df361c02306ba</td></tr><tr><td>Date of birth</td><td><span>21 August 1994</span></td></tr></tbody></table></div>"},"extension":[{"url":"http://hl7.org/fhir/us/core/StructureDefinition/us-core-race","extension":[{"url":"ombCategory","valueCoding":{"system":"urn:oid:2.16.840.1.113883.6.238","code":"1002-5","display":"American Indian or Alaska Native","userSelected":true}},{"url":"text","valueString":"American Indian or Alaska Native"}]},{"url":"http://hl7.org/fhir/us/core/StructureDefinition/us-core-ethnicity","extension":[{"url":"ombCategory","valueCoding":{"system":"urn:oid:2.16.840.1.113883.6.238","code":"2135-2","display":"Hispanic or Latino","userSelected":true}},{"url":"text","valueString":"Hispanic or Latino"}]}],"identifier":[{"type":{"coding":[{"system":"http://terminology.hl7.org/CodeSystem/v2-0203","code":"MR"}]},"system":"https://bonnie-fhir.healthit.gov/","value":"6129134e02c62a011f2e71b4"}],"active":true,"name":[{"use":"usual","family":"DENEXPass","given":["CMOdurED_ED=1hrObs=1hrBFEnc"]}],"gender":"male","birthDate":"1994-08-21"},"request":{"method":"PUT","url":"Patient/7c3ee345-c9da-4ce2-97e8-727de2e5023a"}},{"fullUrl":"https://madie.cms.gov/Encounter/5c954113b8484612c37f27f5","resource":{"resourceType":"Encounter","id":"3322eee3-9006-40c2-84b5-aa6e974fd958","meta":{"profile":["http://hl7.org/fhir/us/qicore/StructureDefinition/qicore-encounter"]},"status":"finished","class":{"system":"http://terminology.hl7.org/CodeSystem/v3-ActCode","code":"EMER","display":"emergency","userSelected":true},"type":[{"coding":[{"system":"http://snomed.info/sct","code":"4525004"}]}],"subject":{"reference":"Patient/7c3ee345-c9da-4ce2-97e8-727de2e5023a"},"period":{"start":"2025-10-10T09:30:00.000+00:00","end":"2025-10-10T10:30:00.000+00:00"},"length":{"value":0,"unit":"days"}},"request":{"method":"PUT","url":"Encounter/3322eee3-9006-40c2-84b5-aa6e974fd958"}},{"fullUrl":"https://madie.cms.gov/Encounter/5c954113b8484612c37f27f6","resource":{"resourceType":"Encounter","id":"2298232c-8a01-4355-9248-0a59544abb11","meta":{"profile":["http://hl7.org/fhir/us/qicore/StructureDefinition/qicore-encounter"]},"status":"finished","class":{"system":"http://terminology.hl7.org/CodeSystem/v3-ActCode","code":"OBSENC","display":"observation encounter","userSelected":true},"type":[{"coding":[{"system":"http://snomed.info/sct","code":"448851000124103"}]}],"subject":{"reference":"Patient/7c3ee345-c9da-4ce2-97e8-727de2e5023a"},"period":{"start":"2025-10-10T10:30:00.000+00:00","end":"2025-10-10T10:35:00.000+00:00"},"length":{"value":0,"unit":"days"}},"request":{"method":"PUT","url":"Encounter/2298232c-8a01-4355-9248-0a59544abb11"}},{"fullUrl":"https://madie.cms.gov/Encounter/5c954113b8484612c37f27f7","resource":{"resourceType":"Encounter","id":"b6f1f48b-a33f-40d9-a744-b88f5feaa81a","meta":{"profile":["http://hl7.org/fhir/us/qicore/StructureDefinition/qicore-encounter"]},"status":"finished","class":{"system":"http://terminology.hl7.org/CodeSystem/v3-ActCode","code":"IMP","display":"inpatient encounter","userSelected":true},"type":[{"coding":[{"system":"http://snomed.info/sct","code":"32485007"}]}],"subject":{"reference":"Patient/7c3ee345-c9da-4ce2-97e8-727de2e5023a"},"period":{"start":"2025-10-10T10:35:00.000+00:00","end":"2025-10-12T11:30:00.000+00:00"},"length":{"value":2,"unit":"days"},"diagnosis":[{"condition":{"reference":"Condition/ischemic-stroke-7f00"},"use":{"coding":[{"system":"http://terminology.hl7.org/CodeSystem/diagnosis-role","code":"billing","display":"Billing"}]},"rank":1}]},"request":{"method":"PUT","url":"Encounter/b6f1f48b-a33f-40d9-a744-b88f5feaa81a"}},{"fullUrl":"https://madie.cms.gov/ServiceRequest/5c954113b8484612c37f27f9","resource":{"resourceType":"ServiceRequest","id":"c38a249d-c550-4f6e-a055-1cd16ad4c985","meta":{"profile":["http://hl7.org/fhir/us/qicore/StructureDefinition/qicore-servicerequest"]},"status":"active","intent":"order","code":{"coding":[{"system":"http://snomed.info/sct","code":"133918004"}]},"subject":{"reference":"Patient/7c3ee345-c9da-4ce2-97e8-727de2e5023a"},"authoredOn":"2025-10-10T09:30:00.000+00:00"},"request":{"method":"PUT","url":"ServiceRequest/c38a249d-c550-4f6e-a055-1cd16ad4c985"}},{"fullUrl":"https://madie.cms.gov/Condition/ischemic-stroke-7f00","resource":{"resourceType":"Condition","id":"f82a45b6-df8a-462d-888f-e82e542e8216","meta":{"profile":["http://hl7.org/fhir/us/qicore/StructureDefinition/qicore-condition"]},"clinicalStatus":{"coding":[{"system":"http://terminology.hl7.org/CodeSystem/condition-clinical","code":"active"}]},"verificationStatus":{"coding":[{"system":"http://terminology.hl7.org/CodeSystem/condition-ver-status","code":"confirmed"}]},"category":[{"coding":[{"system":"http://terminology.hl7.org/CodeSystem/condition-category","code":"encounter-diagnosis","display":"Encounter Diagnosis"}]}],"code":{"coding":[{"system":"http://snomed.info/sct","version":"2020-09","code":"111297002","display":"Nonparalytic stroke (disorder)","userSelected":true}]},"subject":{"reference":"Patient/7c3ee345-c9da-4ce2-97e8-727de2e5023a"},"recordedDate":"2025-07-14T08:00:00.000+00:00"},"request":{"method":"PUT","url":"Condition/f82a45b6-df8a-462d-888f-e82e542e8216"}},{"fullUrl":"https://madie.cms.gov/Coverage/1","resource":{"resourceType":"Coverage","id":"edae35b5-76b4-4553-b81f-7ae1c34bb5ed","meta":{"profile":["http://hl7.org/fhir/us/qicore/StructureDefinition/qicore-coverage"]},"status":"active","beneficiary":{"reference":"Patient/7c3ee345-c9da-4ce2-97e8-727de2e5023a"},"payor":[{"reference":"Organization/4b5a882f-1f43-485c-85c6-f5ad2337d5b1"}]},"request":{"method":"PUT","url":"Coverage/edae35b5-76b4-4553-b81f-7ae1c34bb5ed"}},{"fullUrl":"https://madie.cms.gov/Organization/123456","resource":{"resourceType":"Organization","id":"4b5a882f-1f43-485c-85c6-f5ad2337d5b1","meta":{"profile":["http://hl7.org/fhir/us/qicore/StructureDefinition/qicore-organization"]},"identifier":[{"use":"temp","system":"urn:oid:2.16.840.1.113883.4.4","value":"21-3259825"}],"active":true,"type":[{"coding":[{"system":"http://terminology.hl7.org/CodeSystem/organization-type","code":"pay","display":"Payer"}]}],"name":"Blue Cross Blue Shield of Texas","telecom":[{"system":"phone","value":"(+1) 972-766-6900"}],"address":[{"use":"billing","type":"postal","line":["P.O. Box 660044"],"city":"Dallas","state":"TX","postalCode":"75266-0044","country":"USA"}]},"request":{"method":"PUT","url":"Organization/4b5a882f-1f43-485c-85c6-f5ad2337d5b1"}},{"fullUrl":"https://madie.cms.gov/MeasureReport/bc740340-e366-4daf-aeff-5f62072882d8","resource":{"resourceType":"MeasureReport","id":"bc740340-e366-4daf-aeff-5f62072882d8","meta":{"profile":["http://hl7.org/fhir/us/cqfmeasures/StructureDefinition/test-case-cqfm"]},"contained":[{"resourceType":"Parameters","id":"bc2cf6ff-783c-4e77-976d-88fafd02ae36-parameters","parameter":[{"name":"subject","valueString":"7c3ee345-c9da-4ce2-97e8-727de2e5023a"}]}],"extension":[{"url":"http://hl7.org/fhir/us/cqfmeasures/StructureDefinition/cqfm-inputParameters","valueReference":{"reference":"#bc2cf6ff-783c-4e77-976d-88fafd02ae36-parameters"}},{"url":"http://hl7.org/fhir/us/cqfmeasures/StructureDefinition/cqfm-testCaseDescription","valueMarkdown":"Patient receives CMO during ED. ED ends 60 minute before Observation. Obs ends 60 min before IP start. Testing day of operator with HospitalizationWithObservation function."}],"modifierExtension":[{"url":"http://hl7.org/fhir/us/cqfmeasures/StructureDefinition/cqfm-isTestCase","valueBoolean":true}],"status":"complete","type":"individual","measure":"https://madie.cms.gov/Measure/DischargedonAntithromboticTherapyFHIR","period":{"start":"2025-01-01","end":"2025-12-31"},"group":[{"population":[{"code":{"coding":[{"system":"http://terminology.hl7.org/CodeSystem/measure-population","code":"initial-population","display":"Initial Population"}]},"count":1},{"code":{"coding":[{"system":"http://terminology.hl7.org/CodeSystem/measure-population","code":"denominator","display":"Denominator"}]},"count":1},{"code":{"coding":[{"system":"http://terminology.hl7.org/CodeSystem/measure-population","code":"denominator-exclusion","display":"Denominator Exclusion"}]},"count":1},{"code":{"coding":[{"system":"http://terminology.hl7.org/CodeSystem/measure-population","code":"numerator","display":"Numerator"}]},"count":0},{"code":{"coding":[{"system":"http://terminology.hl7.org/CodeSystem/measure-population","code":"denominator-exception","display":"Denominator Exception"}]},"count":0}]}]},"request":{"method":"PUT","url":"MeasureReport/bc740340-e366-4daf-aeff-5f62072882d8"}}]}