{"resourceType":"Bundle","id":"tests-839d14a7-b370-4b12-b324-60a7a810b77c-bundle","type":"transaction","entry":[{"fullUrl":"https://madie.cms.gov/Patient/839d14a7-b370-4b12-b324-60a7a810b77c","resource":{"resourceType":"Patient","id":"839d14a7-b370-4b12-b324-60a7a810b77c","meta":{"profile":["http://hl7.org/fhir/us/qicore/StructureDefinition/qicore-patient"]},"text":{"status":"generated","div":"<div xmlns=\"http://www.w3.org/1999/xhtml\"><div class=\"hapiHeaderText\">AssessTerm0RelDtTimeB4TimeOfDelivDtTime <b>DENPASS </b></div><table class=\"hapiPropertyTable\"><tbody><tr><td>Identifier</td><td>98b486907e2f425b582fc615d2904634e2f052873def7e64eba3846957a32ac0</td></tr><tr><td>Date of birth</td><td><span>14 February 1985</span></td></tr></tbody></table></div>"},"extension":[{"url":"http://hl7.org/fhir/us/core/StructureDefinition/us-core-race","extension":[{"url":"ombCategory","valueCoding":{"system":"urn:oid:2.16.840.1.113883.6.238","code":"1002-5","display":"American Indian or Alaska Native","userSelected":true}},{"url":"text","valueString":"American Indian or Alaska Native"}]},{"url":"http://hl7.org/fhir/us/core/StructureDefinition/us-core-ethnicity","extension":[{"url":"ombCategory","valueCoding":{"system":"urn:oid:2.16.840.1.113883.6.238","code":"2135-2","display":"Hispanic or Latino","userSelected":true}},{"url":"text","valueString":"Hispanic or Latino"}]}],"identifier":[{"type":{"coding":[{"system":"http://terminology.hl7.org/CodeSystem/v2-0203","code":"MR"}]},"system":"https://bonnie-fhir.healthit.gov/","value":"63487c2d0968f80122540160"}],"active":true,"name":[{"use":"usual","family":"DENPass","given":["AssessTerm0RelDtTimeB4TimeOfDelivDtTime"]}],"gender":"female","birthDate":"1997-02-14"},"request":{"method":"PUT","url":"Patient/839d14a7-b370-4b12-b324-60a7a810b77c"}},{"fullUrl":"https://madie.cms.gov/Observation/5d014eb2b848460872380642","resource":{"resourceType":"Observation","id":"ebea58f7-b19b-4617-81d4-021bad608b6d","meta":{"profile":["http://hl7.org/fhir/us/qicore/StructureDefinition/qicore-observation"]},"status":"final","category":[{"coding":[{"system":"http://terminology.hl7.org/CodeSystem/observation-category","code":"exam","display":"exam","userSelected":true}]}],"code":{"coding":[{"system":"http://loinc.org","code":"11637-6"}]},"subject":{"reference":"Patient/839d14a7-b370-4b12-b324-60a7a810b77c"},"effectiveDateTime":"2024-09-19T09:00:00.000+00:00","valueInteger":0},"request":{"method":"PUT","url":"Observation/ebea58f7-b19b-4617-81d4-021bad608b6d"}},{"fullUrl":"https://madie.cms.gov/Observation/5d014eb2b848460872380644","resource":{"resourceType":"Observation","id":"7af583cc-5661-4ba8-a076-be6af2797105","meta":{"profile":["http://hl7.org/fhir/us/qicore/StructureDefinition/qicore-observation"]},"status":"final","category":[{"coding":[{"system":"http://terminology.hl7.org/CodeSystem/observation-category","code":"exam","display":"exam","userSelected":true}]}],"code":{"coding":[{"system":"http://loinc.org","code":"11639-2"}]},"subject":{"reference":"Patient/839d14a7-b370-4b12-b324-60a7a810b77c"},"effectiveDateTime":"2025-06-08T17:00:00.000+00:00","valueInteger":0},"request":{"method":"PUT","url":"Observation/7af583cc-5661-4ba8-a076-be6af2797105"}},{"fullUrl":"https://madie.cms.gov/Observation/5d014eb2b848460872380646","resource":{"resourceType":"Observation","id":"91529a8c-320e-408f-9561-8d049dbbc2bb","meta":{"profile":["http://hl7.org/fhir/us/qicore/StructureDefinition/qicore-observation"]},"status":"final","category":[{"coding":[{"system":"http://terminology.hl7.org/CodeSystem/observation-category","code":"exam","display":"exam","userSelected":true}]}],"code":{"coding":[{"system":"http://loinc.org","code":"11884-4"}]},"subject":{"reference":"Patient/839d14a7-b370-4b12-b324-60a7a810b77c"},"effectiveDateTime":"2025-06-08T20:00:00.000+00:00","valueQuantity":{"value":37.0,"system":"http://unitsofmeasure.org","code":"weeks"}},"request":{"method":"PUT","url":"Observation/91529a8c-320e-408f-9561-8d049dbbc2bb"}},{"fullUrl":"https://madie.cms.gov/Observation/5e6931947ffec7000031e24f","resource":{"resourceType":"Observation","id":"4a10166f-4b78-456a-8d1e-44769e6bc81d","meta":{"profile":["http://hl7.org/fhir/us/qicore/StructureDefinition/qicore-observation"]},"status":"final","category":[{"coding":[{"system":"http://terminology.hl7.org/CodeSystem/observation-category","code":"exam","display":"exam","userSelected":true}]}],"code":{"coding":[{"system":"http://loinc.org","code":"93857-1"}]},"subject":{"reference":"Patient/839d14a7-b370-4b12-b324-60a7a810b77c"},"effectiveDateTime":"2025-06-08T20:00:00.000+00:00","valueDateTime":"2025-06-08T20:00:00+00:00"},"request":{"method":"PUT","url":"Observation/4a10166f-4b78-456a-8d1e-44769e6bc81d"}},{"fullUrl":"https://madie.cms.gov/Encounter/5d014eb2b848460872380640","resource":{"resourceType":"Encounter","id":"e5ad8c39-815b-4de2-a757-3051f0410088","meta":{"profile":["http://hl7.org/fhir/us/qicore/StructureDefinition/qicore-encounter"]},"status":"finished","class":{"system":"http://terminology.hl7.org/CodeSystem/v3-ActCode","code":"IMP","display":"inpatient encounter"},"type":[{"coding":[{"system":"http://snomed.info/sct","code":"8715000"}]}],"subject":{"reference":"Patient/839d14a7-b370-4b12-b324-60a7a810b77c"},"period":{"start":"2025-06-08T08:00:00.000Z","end":"2025-06-10T08:15:00.000Z"},"length":{"value":2.0,"unit":"days"},"diagnosis":[{"condition":{"reference":"Condition/delivery-of-singleton-f83c"},"use":{"coding":[{"system":"http://snomed.info/sct","code":"169826009","display":"Delivery of Singleton"}]}},{"condition":{"reference":"Condition/delivery-of-singleton-7764"}}]},"request":{"method":"PUT","url":"Encounter/e5ad8c39-815b-4de2-a757-3051f0410088"}},{"fullUrl":"https://madie.cms.gov/Coverage/5f5f9e471c76ba674bb032bf","resource":{"resourceType":"Coverage","id":"174882a2-30a4-439f-9658-02454a7a66d7","status":"active","beneficiary":{"reference":"Patient/839d14a7-b370-4b12-b324-60a7a810b77c"},"period":{"start":"1985-02-14T08:00:00.000Z"},"payor":[{"reference":"Organization/26111c91-b0e2-476c-a20b-e3f39799f8f5"}]},"request":{"method":"PUT","url":"Coverage/174882a2-30a4-439f-9658-02454a7a66d7"}},{"fullUrl":"https://madie.cms.gov/Procedure/5d014eb2b848460872380641","resource":{"resourceType":"Procedure","id":"d187c741-9912-4de6-9ef4-2c25a318e9f4","meta":{"profile":["http://hl7.org/fhir/us/qicore/StructureDefinition/qicore-procedure"]},"extension":[{"url":"http://hl7.org/fhir/us/qicore/StructureDefinition/qicore-recorded","valueDateTime":"2013-04-05T09:35:00-04:00"}],"status":"completed","code":{"coding":[{"system":"http://www.cms.gov/Medicare/Coding/ICD10","code":"10D00Z0"},{"system":"http://snomed.info/sct","code":"4504004"},{"system":"http://www.icd10data.com/icd10pcs","code":"10D00Z1","userSelected":true}]},"subject":{"reference":"Patient/839d14a7-b370-4b12-b324-60a7a810b77c"},"performedPeriod":{"start":"2025-06-08T20:00:00.000Z","end":"2025-06-08T20:15:00.000Z"}},"request":{"method":"PUT","url":"Procedure/d187c741-9912-4de6-9ef4-2c25a318e9f4"}},{"fullUrl":"https://madie.cms.gov/Condition/delivery-of-singleton-7764","resource":{"resourceType":"Condition","id":"0b778916-384e-4d9e-a76d-aa9917e40839","meta":{"profile":["http://hl7.org/fhir/us/qicore/StructureDefinition/qicore-condition"]},"category":[{"coding":[{"system":"http://terminology.hl7.org/CodeSystem/condition-category","code":"encounter-diagnosis","display":"Encounter Diagnosis"}]}],"code":{"coding":[{"system":"http://snomed.info/sct","version":"2022-09","code":"169826009","display":"Single live birth (finding)","userSelected":true}]},"subject":{"reference":"Patient/839d14a7-b370-4b12-b324-60a7a810b77c"},"recordedDate":"2025-10-20T08:00:00.000+00:00"},"request":{"method":"PUT","url":"Condition/0b778916-384e-4d9e-a76d-aa9917e40839"}},{"fullUrl":"https://madie.cms.gov/Organization/123456","resource":{"resourceType":"Organization","id":"26111c91-b0e2-476c-a20b-e3f39799f8f5","meta":{"profile":["http://hl7.org/fhir/us/qicore/StructureDefinition/qicore-organization"]},"identifier":[{"use":"temp","system":"urn:oid:2.16.840.1.113883.4.4","value":"21-3259825"}],"active":true,"type":[{"coding":[{"system":"http://terminology.hl7.org/CodeSystem/organization-type","code":"pay","display":"Payer"}]}],"name":"Blue Cross Blue Shield of Texas","telecom":[{"system":"phone","value":"(+1) 972-766-6900"}],"address":[{"use":"billing","type":"postal","line":["P.O. Box 660044"],"city":"Dallas","state":"TX","postalCode":"75266-0044","country":"USA"}]},"request":{"method":"PUT","url":"Organization/26111c91-b0e2-476c-a20b-e3f39799f8f5"}},{"fullUrl":"https://madie.cms.gov/Practitioner/practitioner-123456","resource":{"resourceType":"Practitioner","id":"dc78c7e1-be13-4658-b3a8-e51bed1f7280","identifier":[{"system":"http://hl7.org/fhir/sid/us-npi","value":"123456"}],"name":[{"family":"Evil","prefix":["Dr"]}]},"request":{"method":"PUT","url":"Practitioner/dc78c7e1-be13-4658-b3a8-e51bed1f7280"}},{"fullUrl":"https://madie.cms.gov/MeasureReport/d5501341-71e4-44c8-9198-2a0f5bb12871","resource":{"resourceType":"MeasureReport","id":"d5501341-71e4-44c8-9198-2a0f5bb12871","meta":{"profile":["http://hl7.org/fhir/us/cqfmeasures/StructureDefinition/test-case-cqfm"]},"contained":[{"resourceType":"Parameters","id":"e53e8cd6-652c-440b-abfd-dca18d36b026-parameters","parameter":[{"name":"subject","valueString":"839d14a7-b370-4b12-b324-60a7a810b77c"}]}],"extension":[{"url":"http://hl7.org/fhir/us/cqfmeasures/StructureDefinition/cqfm-inputParameters","valueReference":{"reference":"#e53e8cd6-652c-440b-abfd-dca18d36b026-parameters"}},{"url":"http://hl7.org/fhir/us/cqfmeasures/StructureDefinition/cqfm-testCaseDescription","valueMarkdown":"\"Preterm Births=0, rel date/time < 42weeks prior to delivery\nTerm Newborn=0, rel date/time same date and before delivery time\"\n"}],"modifierExtension":[{"url":"http://hl7.org/fhir/us/cqfmeasures/StructureDefinition/cqfm-isTestCase","valueBoolean":true}],"status":"complete","type":"individual","measure":"https://madie.cms.gov/Measure/CesareanBirthFHIR","period":{"start":"2025-01-01","end":"2025-12-31"},"group":[{"population":[{"code":{"coding":[{"system":"http://terminology.hl7.org/CodeSystem/measure-population","code":"initial-population","display":"Initial Population"}]},"count":1},{"code":{"coding":[{"system":"http://terminology.hl7.org/CodeSystem/measure-population","code":"denominator","display":"Denominator"}]},"count":1},{"code":{"coding":[{"system":"http://terminology.hl7.org/CodeSystem/measure-population","code":"denominator-exclusion","display":"Denominator Exclusion"}]},"count":0},{"code":{"coding":[{"system":"http://terminology.hl7.org/CodeSystem/measure-population","code":"numerator","display":"Numerator"}]},"count":1}]}]},"request":{"method":"PUT","url":"MeasureReport/d5501341-71e4-44c8-9198-2a0f5bb12871"}}]}