{"resourceType":"Bundle","id":"tests-d2556dbf-f07b-4208-921b-86d33f321760-bundle","type":"transaction","entry":[{"fullUrl":"https://madie.cms.gov/Patient/d2556dbf-f07b-4208-921b-86d33f321760","resource":{"resourceType":"Patient","id":"d2556dbf-f07b-4208-921b-86d33f321760","meta":{"profile":["http://hl7.org/fhir/us/qicore/StructureDefinition/qicore-patient"]},"text":{"status":"generated","div":"<div xmlns=\"http://www.w3.org/1999/xhtml\"><div class=\"hapiHeaderText\">AssessP0 <b>DENPASS </b></div><table class=\"hapiPropertyTable\"><tbody><tr><td>Identifier</td><td>c06cc2d514ccfaffa49c54295f23978df6f00fe92fbd59d826ce4eb31140ad8c</td></tr><tr><td>Date of birth</td><td><span>14 February 1985</span></td></tr></tbody></table></div>"},"extension":[{"url":"http://hl7.org/fhir/us/core/StructureDefinition/us-core-race","extension":[{"url":"ombCategory","valueCoding":{"system":"urn:oid:2.16.840.1.113883.6.238","code":"1002-5","display":"American Indian or Alaska Native","userSelected":true}},{"url":"text","valueString":"American Indian or Alaska Native"}]},{"url":"http://hl7.org/fhir/us/core/StructureDefinition/us-core-ethnicity","extension":[{"url":"ombCategory","valueCoding":{"system":"urn:oid:2.16.840.1.113883.6.238","code":"2135-2","display":"Hispanic or Latino","userSelected":true}},{"url":"text","valueString":"Hispanic or Latino"}]}],"identifier":[{"type":{"coding":[{"system":"http://terminology.hl7.org/CodeSystem/v2-0203","code":"MR"}]},"system":"https://bonnie-fhir.healthit.gov/","value":"63487c2e0968f80122540168"}],"active":true,"name":[{"use":"usual","family":"DENPass","given":["AssessP0"]}],"gender":"female","birthDate":"1997-02-14"},"request":{"method":"PUT","url":"Patient/d2556dbf-f07b-4208-921b-86d33f321760"}},{"fullUrl":"https://madie.cms.gov/Observation/5d014eb2b84846087238064b","resource":{"resourceType":"Observation","id":"11478253-ceae-464d-9998-5e355bf343a7","meta":{"profile":["http://hl7.org/fhir/us/qicore/StructureDefinition/qicore-observation"]},"status":"final","category":[{"coding":[{"system":"http://terminology.hl7.org/CodeSystem/observation-category","code":"exam","display":"exam","userSelected":true}]}],"code":{"coding":[{"system":"http://loinc.org","code":"11977-6"}]},"subject":{"reference":"Patient/d2556dbf-f07b-4208-921b-86d33f321760"},"effectiveDateTime":"2024-10-20T09:00:00.000+00:00","valueInteger":0},"request":{"method":"PUT","url":"Observation/11478253-ceae-464d-9998-5e355bf343a7"}},{"fullUrl":"https://madie.cms.gov/Observation/5d014eb2b84846087238064d","resource":{"resourceType":"Observation","id":"44cbd7c7-d880-4faa-bf14-320853c694ae","meta":{"profile":["http://hl7.org/fhir/us/qicore/StructureDefinition/qicore-observation"]},"status":"final","category":[{"coding":[{"system":"http://terminology.hl7.org/CodeSystem/observation-category","code":"exam","display":"exam","userSelected":true}]}],"code":{"coding":[{"system":"http://loinc.org","code":"11884-4"}]},"subject":{"reference":"Patient/d2556dbf-f07b-4208-921b-86d33f321760"},"effectiveDateTime":"2025-06-08T20:00:00.000+00:00","valueQuantity":{"value":37.0,"system":"http://unitsofmeasure.org","code":"weeks"}},"request":{"method":"PUT","url":"Observation/44cbd7c7-d880-4faa-bf14-320853c694ae"}},{"fullUrl":"https://madie.cms.gov/Observation/5e68eb3959d82f0000c95ec8","resource":{"resourceType":"Observation","id":"e02919b4-94d9-4c21-a196-240381df0934","meta":{"profile":["http://hl7.org/fhir/us/qicore/StructureDefinition/qicore-observation"]},"status":"final","category":[{"coding":[{"system":"http://terminology.hl7.org/CodeSystem/observation-category","code":"exam","display":"exam","userSelected":true}]}],"code":{"coding":[{"system":"http://loinc.org","code":"93857-1"}]},"subject":{"reference":"Patient/d2556dbf-f07b-4208-921b-86d33f321760"},"effectiveDateTime":"2025-06-08T20:00:00.000+00:00","valueDateTime":"2025-06-08T20:00:00+00:00"},"request":{"method":"PUT","url":"Observation/e02919b4-94d9-4c21-a196-240381df0934"}},{"fullUrl":"https://madie.cms.gov/Encounter/5d014eb2b848460872380649","resource":{"resourceType":"Encounter","id":"cf8101ba-8cff-42ad-b261-7ddfae210655","meta":{"profile":["http://hl7.org/fhir/us/qicore/StructureDefinition/qicore-encounter"]},"status":"finished","class":{"system":"http://terminology.hl7.org/CodeSystem/v3-ActCode","code":"IMP","display":"inpatient encounter"},"type":[{"coding":[{"system":"http://snomed.info/sct","code":"8715000"}]}],"subject":{"reference":"Patient/d2556dbf-f07b-4208-921b-86d33f321760"},"period":{"start":"2025-06-08T08:00:00.000Z","end":"2025-06-10T08:15:00.000Z"},"diagnosis":[{"condition":{"reference":"Condition/delivery-of-singleton-99c4"}}]},"request":{"method":"PUT","url":"Encounter/cf8101ba-8cff-42ad-b261-7ddfae210655"}},{"fullUrl":"https://madie.cms.gov/Procedure/5d014eb2b84846087238064a","resource":{"resourceType":"Procedure","id":"3f0ea788-db0d-4e4d-8533-ffa6efbf4327","meta":{"profile":["http://hl7.org/fhir/us/qicore/StructureDefinition/qicore-procedure"]},"extension":[{"url":"http://hl7.org/fhir/us/qicore/StructureDefinition/qicore-recorded","valueDateTime":"2013-04-05T09:35:00-04:00"}],"status":"completed","code":{"coding":[{"system":"http://snomed.info/sct","code":"4504004"}]},"subject":{"reference":"Patient/d2556dbf-f07b-4208-921b-86d33f321760"},"performedPeriod":{"start":"2025-06-08T20:00:00.000Z","end":"2025-06-08T20:15:00.000Z"}},"request":{"method":"PUT","url":"Procedure/3f0ea788-db0d-4e4d-8533-ffa6efbf4327"}},{"fullUrl":"https://madie.cms.gov/Condition/delivery-of-singleton-99c4","resource":{"resourceType":"Condition","id":"1706e5fe-d737-4f8a-9e5e-9eb214e1a289","meta":{"profile":["http://hl7.org/fhir/us/qicore/StructureDefinition/qicore-condition"]},"category":[{"coding":[{"system":"http://terminology.hl7.org/CodeSystem/condition-category","code":"encounter-diagnosis","display":"Encounter Diagnosis"}]}],"code":{"coding":[{"system":"http://snomed.info/sct","version":"2022-09","code":"169826009","display":"Single live birth (finding)","userSelected":true}]},"subject":{"reference":"Patient/d2556dbf-f07b-4208-921b-86d33f321760"},"recordedDate":"2025-10-14T08:00:00.000+00:00"},"request":{"method":"PUT","url":"Condition/1706e5fe-d737-4f8a-9e5e-9eb214e1a289"}},{"fullUrl":"https://madie.cms.gov/Coverage/1","resource":{"resourceType":"Coverage","id":"eab6acf6-4f6f-4649-af98-c643c0719dca","meta":{"profile":["http://hl7.org/fhir/us/qicore/StructureDefinition/qicore-coverage"]},"status":"active","beneficiary":{"reference":"Patient/d2556dbf-f07b-4208-921b-86d33f321760"},"payor":[{"reference":"Organization/5224cb12-ed64-4d6d-ab28-40a64f0800f1"}]},"request":{"method":"PUT","url":"Coverage/eab6acf6-4f6f-4649-af98-c643c0719dca"}},{"fullUrl":"https://madie.cms.gov/Organization/123456","resource":{"resourceType":"Organization","id":"5224cb12-ed64-4d6d-ab28-40a64f0800f1","meta":{"profile":["http://hl7.org/fhir/us/qicore/StructureDefinition/qicore-organization"]},"identifier":[{"use":"temp","system":"urn:oid:2.16.840.1.113883.4.4","value":"21-3259825"}],"active":true,"type":[{"coding":[{"system":"http://terminology.hl7.org/CodeSystem/organization-type","code":"pay","display":"Payer"}]}],"name":"Blue Cross Blue Shield of Texas","telecom":[{"system":"phone","value":"(+1) 972-766-6900"}],"address":[{"use":"billing","type":"postal","line":["P.O. Box 660044"],"city":"Dallas","state":"TX","postalCode":"75266-0044","country":"USA"}]},"request":{"method":"PUT","url":"Organization/5224cb12-ed64-4d6d-ab28-40a64f0800f1"}},{"fullUrl":"https://madie.cms.gov/Practitioner/practitioner-123456","resource":{"resourceType":"Practitioner","id":"891c9a38-cc40-4f58-bbdf-c4f2e197f9b2","identifier":[{"system":"http://hl7.org/fhir/sid/us-npi","value":"123456"}],"name":[{"family":"Evil","prefix":["Dr"]}]},"request":{"method":"PUT","url":"Practitioner/891c9a38-cc40-4f58-bbdf-c4f2e197f9b2"}},{"fullUrl":"https://madie.cms.gov/MeasureReport/21bc849d-654a-47e5-8453-74584c2622e3","resource":{"resourceType":"MeasureReport","id":"21bc849d-654a-47e5-8453-74584c2622e3","meta":{"profile":["http://hl7.org/fhir/us/cqfmeasures/StructureDefinition/test-case-cqfm"]},"contained":[{"resourceType":"Parameters","id":"d05543c3-b34d-4778-8308-9530e9dee3b8-parameters","parameter":[{"name":"subject","valueString":"d2556dbf-f07b-4208-921b-86d33f321760"}]}],"extension":[{"url":"http://hl7.org/fhir/us/cqfmeasures/StructureDefinition/cqfm-inputParameters","valueReference":{"reference":"#d05543c3-b34d-4778-8308-9530e9dee3b8-parameters"}},{"url":"http://hl7.org/fhir/us/cqfmeasures/StructureDefinition/cqfm-testCaseDescription","valueMarkdown":"Parity=0, relevant date/time less than 42 weeks prior to delivery date/time\n"}],"modifierExtension":[{"url":"http://hl7.org/fhir/us/cqfmeasures/StructureDefinition/cqfm-isTestCase","valueBoolean":true}],"status":"complete","type":"individual","measure":"https://madie.cms.gov/Measure/CesareanBirthFHIR","period":{"start":"2025-01-01","end":"2025-12-31"},"group":[{"population":[{"code":{"coding":[{"system":"http://terminology.hl7.org/CodeSystem/measure-population","code":"initial-population","display":"Initial Population"}]},"count":1},{"code":{"coding":[{"system":"http://terminology.hl7.org/CodeSystem/measure-population","code":"denominator","display":"Denominator"}]},"count":1},{"code":{"coding":[{"system":"http://terminology.hl7.org/CodeSystem/measure-population","code":"denominator-exclusion","display":"Denominator Exclusion"}]},"count":0},{"code":{"coding":[{"system":"http://terminology.hl7.org/CodeSystem/measure-population","code":"numerator","display":"Numerator"}]},"count":0}]}]},"request":{"method":"PUT","url":"MeasureReport/21bc849d-654a-47e5-8453-74584c2622e3"}}]}