{"resourceType":"Bundle","id":"tests-055640ae-dc71-4e1d-918b-e367013de209-bundle","type":"transaction","entry":[{"fullUrl":"https://madie.cms.gov/Patient/055640ae-dc71-4e1d-918b-e367013de209","resource":{"resourceType":"Patient","id":"055640ae-dc71-4e1d-918b-e367013de209","meta":{"profile":["http://hl7.org/fhir/us/qicore/StructureDefinition/qicore-patient"]},"text":{"status":"generated","div":"<div xmlns=\"http://www.w3.org/1999/xhtml\"><div class=\"hapiHeaderText\">CancerDxStartsLastDayofMPOverlapsEnc<b>IPPPassPop1</b></div><table class=\"hapiPropertyTable\"><tbody><tr><td>Identifier</td><td>d5fa107024042175d86d813d9f3278123f01630b11769a6127ee8a990f85bdc2</td></tr><tr><td>Date of birth</td><td><span>19 October 1961</span></td></tr></tbody></table></div>"},"extension":[{"url":"http://hl7.org/fhir/us/core/StructureDefinition/us-core-race","extension":[{"url":"ombCategory","valueCoding":{"system":"urn:oid:2.16.840.1.113883.6.238","code":"2106-3","display":"White","userSelected":true}},{"url":"text","valueString":"White"}]},{"url":"http://hl7.org/fhir/us/core/StructureDefinition/us-core-ethnicity","extension":[{"url":"ombCategory","valueCoding":{"system":"urn:oid:2.16.840.1.113883.6.238","code":"2186-5","display":"Not Hispanic or Latino","userSelected":true}},{"url":"text","valueString":"Not Hispanic or Latino"}]}],"identifier":[{"type":{"coding":[{"system":"http://terminology.hl7.org/CodeSystem/v2-0203","code":"MR"}]},"system":"https://bonnie-fhir.healthit.gov/","value":"62c880ec0111a60120dc21fc"}],"active":true,"name":[{"use":"usual","family":"IPPPassPop1","given":["CancerDxStartsLastDayofMPOverlapsEnc"]}],"gender":"female","birthDate":"1961-10-19"},"request":{"method":"PUT","url":"Patient/055640ae-dc71-4e1d-918b-e367013de209"}},{"fullUrl":"https://madie.cms.gov/Condition/5ca5260db8484613a555a992","resource":{"resourceType":"Condition","id":"08aadfa8-4709-4165-bdb7-f9f82321d91f","meta":{"profile":["http://hl7.org/fhir/us/qicore/StructureDefinition/qicore-condition"]},"clinicalStatus":{"coding":[{"system":"http://terminology.hl7.org/CodeSystem/condition-clinical","code":"active","display":"Active"}]},"verificationStatus":{"coding":[{"system":"http://terminology.hl7.org/CodeSystem/condition-ver-status","code":"confirmed","display":"Confirmed"}]},"category":[{"coding":[{"system":"http://terminology.hl7.org/CodeSystem/condition-category","code":"encounter-diagnosis","display":"Encounter Diagnosis"},{"system":"http://terminology.hl7.org/CodeSystem/condition-category","code":"problem-list-item","display":"Problem List Item"}]}],"code":{"coding":[{"system":"http://snomed.info/sct","code":"80914001"}]},"subject":{"reference":"Patient/055640ae-dc71-4e1d-918b-e367013de209"},"onsetDateTime":"2025-12-31T10:00:00.000Z"},"request":{"method":"PUT","url":"Condition/08aadfa8-4709-4165-bdb7-f9f82321d91f"}},{"fullUrl":"https://madie.cms.gov/Encounter/5ca5260db8484613a555a993","resource":{"resourceType":"Encounter","id":"43eaf450-c6fc-47c2-8bd5-016ec79d7f3f","meta":{"profile":["http://hl7.org/fhir/us/qicore/StructureDefinition/qicore-encounter"]},"status":"finished","class":{"system":"http://terminology.hl7.org/CodeSystem/v3-ActCode","code":"AMB","display":"ambulatory","userSelected":true},"type":[{"coding":[{"system":"http://www.ama-assn.org/go/cpt","code":"99212"}]}],"subject":{"reference":"Patient/055640ae-dc71-4e1d-918b-e367013de209"},"period":{"start":"2025-12-31T13:00:00.000Z","end":"2025-12-31T14:00:00.000Z"}},"request":{"method":"PUT","url":"Encounter/43eaf450-c6fc-47c2-8bd5-016ec79d7f3f"}},{"fullUrl":"https://madie.cms.gov/Coverage/60099acb1c76ba64612b0691","resource":{"resourceType":"Coverage","id":"54eec535-c46c-44e7-9da0-cd274396cf4b","meta":{"profile":["http://hl7.org/fhir/us/qicore/StructureDefinition/qicore-coverage"]},"status":"active","beneficiary":{"reference":"Patient/055640ae-dc71-4e1d-918b-e367013de209"},"period":{"start":"1961-10-19T08:00:00.000Z"},"payor":[{"reference":"Organization/890316dc-a4ad-43b4-ba6f-9fb9e6eca282"}]},"request":{"method":"PUT","url":"Coverage/54eec535-c46c-44e7-9da0-cd274396cf4b"}},{"fullUrl":"https://madie.cms.gov/Procedure/5ca5260db8484613a555a994","resource":{"resourceType":"Procedure","id":"3583ec3a-6db9-41f6-834b-3fb28d0f0eef","meta":{"profile":["http://hl7.org/fhir/us/qicore/StructureDefinition/qicore-procedure"]},"extension":[{"url":"http://hl7.org/fhir/us/qicore/StructureDefinition/qicore-recorded","valueDateTime":"2025-12-17T12:35:00.000Z"}],"status":"completed","code":{"coding":[{"system":"http://www.ama-assn.org/go/cpt","code":"51720"}]},"subject":{"reference":"Patient/055640ae-dc71-4e1d-918b-e367013de209"},"performedPeriod":{"start":"2025-12-17T11:00:00.000Z","end":"2025-12-17T11:00:00.000Z"}},"request":{"method":"PUT","url":"Procedure/3583ec3a-6db9-41f6-834b-3fb28d0f0eef"}},{"fullUrl":"https://madie.cms.gov/Procedure/5ca5260db8484613a555a996","resource":{"resourceType":"Procedure","id":"16639b84-c849-41ee-968d-2c6ccd14c03f","meta":{"profile":["http://hl7.org/fhir/us/qicore/StructureDefinition/qicore-procedure"]},"extension":[{"url":"http://hl7.org/fhir/us/qicore/StructureDefinition/qicore-recorded","valueDateTime":"2025-12-31T15:35:00.000Z"}],"status":"completed","code":{"coding":[{"system":"http://www.ama-assn.org/go/cpt","code":"51720"}]},"subject":{"reference":"Patient/055640ae-dc71-4e1d-918b-e367013de209"},"performedPeriod":{"start":"2025-12-31T14:40:00.000Z","end":"2025-12-31T14:40:00.000Z"}},"request":{"method":"PUT","url":"Procedure/16639b84-c849-41ee-968d-2c6ccd14c03f"}},{"fullUrl":"https://madie.cms.gov/Organization/123456","resource":{"resourceType":"Organization","id":"890316dc-a4ad-43b4-ba6f-9fb9e6eca282","meta":{"profile":["http://hl7.org/fhir/us/qicore/StructureDefinition/qicore-organization"]},"identifier":[{"use":"temp","system":"urn:oid:2.16.840.1.113883.4.4","value":"21-3259825"}],"active":true,"type":[{"coding":[{"system":"http://terminology.hl7.org/CodeSystem/organization-type","code":"pay","display":"Payer"}]}],"name":"Blue Cross Blue Shield of Texas","telecom":[{"system":"phone","value":"(+1) 972-766-6900"}],"address":[{"use":"billing","type":"postal","line":["P.O. Box 660044"],"city":"Dallas","state":"TX","postalCode":"75266-0044","country":"USA"}]},"request":{"method":"PUT","url":"Organization/890316dc-a4ad-43b4-ba6f-9fb9e6eca282"}},{"fullUrl":"https://madie.cms.gov/Practitioner/practitioner-123456","resource":{"resourceType":"Practitioner","id":"467a58ba-3cd6-4a21-b8ce-ed9e4ece9a6c","meta":{"profile":["http://hl7.org/fhir/us/qicore/StructureDefinition/qicore-practitioner"]},"identifier":[{"system":"http://hl7.org/fhir/sid/us-npi","value":"123456"}],"name":[{"family":"Evil","prefix":["Dr"]}]},"request":{"method":"PUT","url":"Practitioner/467a58ba-3cd6-4a21-b8ce-ed9e4ece9a6c"}},{"fullUrl":"https://madie.cms.gov/MeasureReport/9c4c6baa-bb4a-4476-b9a2-f3f14590deae","resource":{"resourceType":"MeasureReport","id":"9c4c6baa-bb4a-4476-b9a2-f3f14590deae","meta":{"profile":["http://hl7.org/fhir/us/cqfmeasures/StructureDefinition/test-case-cqfm"]},"contained":[{"resourceType":"Parameters","id":"0226551f-6bad-4791-994a-33fe68e0655d-parameters","parameter":[{"name":"subject","valueString":"055640ae-dc71-4e1d-918b-e367013de209"}]}],"extension":[{"url":"http://hl7.org/fhir/us/cqfmeasures/StructureDefinition/cqfm-inputParameters","valueReference":{"reference":"#0226551f-6bad-4791-994a-33fe68e0655d-parameters"}},{"url":"http://hl7.org/fhir/us/cqfmeasures/StructureDefinition/cqfm-testCaseDescription","valueMarkdown":"Patient with cancer diagnosis that overlaps the office visit during measurement period. Cancer diagnosis and office visit start on last day of the measurement period. \n"}],"modifierExtension":[{"url":"http://hl7.org/fhir/us/cqfmeasures/StructureDefinition/cqfm-isTestCase","valueBoolean":true}],"status":"complete","type":"individual","measure":"https://madie.cms.gov/Measure/OncologyPainIntensityQuantifiedFHIR","period":{"start":"2025-01-01","end":"2025-12-31"},"group":[{"population":[{"code":{"coding":[{"system":"http://terminology.hl7.org/CodeSystem/measure-population","code":"initial-population","display":"Initial Population"}]},"count":1},{"code":{"coding":[{"system":"http://terminology.hl7.org/CodeSystem/measure-population","code":"denominator","display":"Denominator"}]},"count":1},{"code":{"coding":[{"system":"http://terminology.hl7.org/CodeSystem/measure-population","code":"numerator","display":"Numerator"}]},"count":0}]},{"population":[{"code":{"coding":[{"system":"http://terminology.hl7.org/CodeSystem/measure-population","code":"initial-population","display":"Initial Population"}]},"count":0},{"code":{"coding":[{"system":"http://terminology.hl7.org/CodeSystem/measure-population","code":"denominator","display":"Denominator"}]},"count":0},{"code":{"coding":[{"system":"http://terminology.hl7.org/CodeSystem/measure-population","code":"numerator","display":"Numerator"}]},"count":0}]}]},"request":{"method":"PUT","url":"MeasureReport/9c4c6baa-bb4a-4476-b9a2-f3f14590deae"}}]}