{
  "resourceType": "Bundle",
  "id": "633c9d030968f8012250fc98",
  "type": "transaction",
  "entry": [ {
    "fullUrl": "https://madie.cms.gov/Patient/93ddd5ec-1cd5-4894-afbb-65826d86f41e",
    "resource": {
      "resourceType": "Patient",
      "id": "93ddd5ec-1cd5-4894-afbb-65826d86f41e",
      "meta": {
        "profile": [ "http://hl7.org/fhir/us/qicore/StructureDefinition/qicore-patient" ]
      },
      "text": {
        "status": "generated",
        "div": "<div xmlns=\"http://www.w3.org/1999/xhtml\"><div class=\"hapiHeaderText\">Dx=Afib/flutterStart&lt;EncEnd <b>DENOMPASS </b></div><table class=\"hapiPropertyTable\"><tbody><tr><td>Identifier</td><td>78ca765c8eac1b3053de6906cc86801b</td></tr><tr><td>Date of birth</td><td><span>01 December 1960</span></td></tr></tbody></table></div>"
      },
      "extension": [ {
        "url": "http://hl7.org/fhir/us/core/StructureDefinition/us-core-race",
        "extension": [ {
          "url": "ombCategory",
          "valueCoding": {
            "system": "urn:oid:2.16.840.1.113883.6.238",
            "code": "1002-5",
            "display": "American Indian or Alaska Native",
            "userSelected": true
          }
        }, {
          "url": "text",
          "valueString": "American Indian or Alaska Native"
        } ]
      }, {
        "url": "http://hl7.org/fhir/us/core/StructureDefinition/us-core-ethnicity",
        "extension": [ {
          "url": "ombCategory",
          "valueCoding": {
            "system": "urn:oid:2.16.840.1.113883.6.238",
            "code": "2135-2",
            "display": "Hispanic or Latino",
            "userSelected": true
          }
        }, {
          "url": "text",
          "valueString": "Hispanic or Latino"
        } ]
      } ],
      "identifier": [ {
        "type": {
          "coding": [ {
            "system": "http://terminology.hl7.org/CodeSystem/v2-0203",
            "code": "MR"
          } ]
        },
        "system": "https://bonnie-fhir.healthit.gov/",
        "value": "633c9d030968f8012250fc98"
      } ],
      "active": true,
      "name": [ {
        "use": "usual",
        "family": "DENOMPass",
        "given": [ "Dx=Afib/flutterStart<EncEnd" ]
      } ],
      "gender": "male",
      "birthDate": "1960-12-01"
    },
    "request": {
      "method": "POST",
      "url": "Patient/93ddd5ec-1cd5-4894-afbb-65826d86f41e"
    }
  }, {
    "fullUrl": "https://madie.cms.gov/Condition/5c953f97b848462de0ae40e7",
    "resource": {
      "resourceType": "Condition",
      "id": "5c953f97b848462de0ae40e7",
      "meta": {
        "profile": [ "http://hl7.org/fhir/us/qicore/StructureDefinition/qicore-condition" ]
      },
      "clinicalStatus": {
        "coding": [ {
          "system": "http://terminology.hl7.org/CodeSystem/condition-clinical",
          "code": "inactive"
        } ]
      },
      "verificationStatus": {
        "coding": [ {
          "system": "http://terminology.hl7.org/CodeSystem/condition-ver-status",
          "code": "confirmed"
        } ]
      },
      "category": [ {
        "coding": [ {
          "system": "http://terminology.hl7.org/CodeSystem/condition-category",
          "code": "encounter-diagnosis",
          "display": "Encounter Diagnosis"
        } ]
      } ],
      "code": {
        "coding": [ {
          "system": "http://snomed.info/sct",
          "code": "195080001"
        }, {
          "system": "http://hl7.org/fhir/sid/icd-9-cm",
          "code": "427.31"
        }, {
          "system": "http://hl7.org/fhir/sid/icd-10-cm",
          "code": "I48.0"
        } ]
      },
      "subject": {
        "reference": "Patient/93ddd5ec-1cd5-4894-afbb-65826d86f41e"
      },
      "onsetDateTime": "2025-02-09T08:00:00.000Z",
      "abatementDateTime": "2025-02-09T08:15:00.000Z"
    },
    "request": {
      "method": "POST",
      "url": "Condition/5c953f97b848462de0ae40e7"
    }
  }, {
    "fullUrl": "https://madie.cms.gov/Encounter/5c953f97b848462de0ae40e8",
    "resource": {
      "resourceType": "Encounter",
      "id": "5c953f97b848462de0ae40e8",
      "meta": {
        "profile": [ "http://hl7.org/fhir/us/qicore/StructureDefinition/qicore-encounter" ]
      },
      "status": "finished",
      "class": {
        "system": "http://terminology.hl7.org/CodeSystem/v3-ActCode",
        "code": "IMP",
        "display": "inpatient encounter"
      },
      "type": [ {
        "coding": [ {
          "system": "http://snomed.info/sct",
          "code": "183452005"
        } ]
      } ],
      "subject": {
        "reference": "Patient/93ddd5ec-1cd5-4894-afbb-65826d86f41e"
      },
      "period": {
        "start": "2025-02-08T08:00:00.000Z",
        "end": "2025-02-10T08:15:00.000Z"
      },
      "length": {
        "value": 2,
        "unit": "days"
      },
      "diagnosis": [ {
        "condition": {
          "reference": "Condition/ischemic-stroke-197a"
        },
        "use": {
          "coding": [ {
            "system": "http://terminology.hl7.org/CodeSystem/diagnosis-role",
            "code": "billing",
            "display": "Billing"
          } ]
        },
        "rank": 1
      } ]
    },
    "request": {
      "method": "POST",
      "url": "Encounter/5c953f97b848462de0ae40e8"
    }
  }, {
    "fullUrl": "https://madie.cms.gov/Coverage/5f2c53ce1c76ba5c99605768",
    "resource": {
      "resourceType": "Coverage",
      "id": "5f2c53ce1c76ba5c99605768",
      "status": "active",
      "beneficiary": {
        "reference": "Patient/93ddd5ec-1cd5-4894-afbb-65826d86f41e"
      },
      "period": {
        "start": "1960-12-01T08:00:00.000Z"
      },
      "payor": [ {
        "reference": "Organization/123456"
      } ]
    },
    "request": {
      "method": "POST",
      "url": "Coverage/5f2c53ce1c76ba5c99605768"
    }
  }, {
    "fullUrl": "https://madie.cms.gov/Condition/ischemic-stroke-197a",
    "resource": {
      "resourceType": "Condition",
      "id": "ischemic-stroke-197a",
      "meta": {
        "profile": [ "http://hl7.org/fhir/us/qicore/StructureDefinition/qicore-condition" ]
      },
      "clinicalStatus": {
        "coding": [ {
          "system": "http://terminology.hl7.org/CodeSystem/condition-clinical",
          "code": "active"
        } ]
      },
      "verificationStatus": {
        "coding": [ {
          "system": "http://terminology.hl7.org/CodeSystem/condition-ver-status",
          "code": "confirmed"
        } ]
      },
      "category": [ {
        "coding": [ {
          "system": "http://terminology.hl7.org/CodeSystem/condition-category",
          "code": "encounter-diagnosis",
          "display": "Encounter Diagnosis"
        } ]
      } ],
      "code": {
        "coding": [ {
          "system": "http://snomed.info/sct",
          "version": "2021-09",
          "code": "111297002",
          "display": "Nonparalytic stroke (disorder)",
          "userSelected": true
        } ]
      },
      "subject": {
        "reference": "Patient/93ddd5ec-1cd5-4894-afbb-65826d86f41e"
      },
      "recordedDate": "2025-10-13T08:00:00.000+00:00"
    },
    "request": {
      "method": "POST",
      "url": "Condition/ischemic-stroke-197a"
    }
  }, {
    "fullUrl": "https://madie.cms.gov/Organization/123456",
    "resource": {
      "resourceType": "Organization",
      "id": "123456",
      "meta": {
        "profile": [ "http://hl7.org/fhir/us/qicore/StructureDefinition/qicore-organization" ]
      },
      "identifier": [ {
        "use": "temp",
        "system": "urn:oid:2.16.840.1.113883.4.4",
        "value": "21-3259825"
      } ],
      "active": true,
      "type": [ {
        "coding": [ {
          "system": "http://terminology.hl7.org/CodeSystem/organization-type",
          "code": "pay",
          "display": "Payer"
        } ]
      } ],
      "name": "Blue Cross Blue Shield of Texas",
      "telecom": [ {
        "system": "phone",
        "value": "(+1) 972-766-6900"
      } ],
      "address": [ {
        "use": "billing",
        "type": "postal",
        "line": [ "P.O. Box 660044" ],
        "city": "Dallas",
        "state": "TX",
        "postalCode": "75266-0044",
        "country": "USA"
      } ]
    },
    "request": {
      "method": "POST",
      "url": "Organization/123456"
    }
  }, {
    "fullUrl": "https://madie.cms.gov/Practitioner/practitioner-123456",
    "resource": {
      "resourceType": "Practitioner",
      "id": "practitioner-123456",
      "identifier": [ {
        "system": "http://hl7.org/fhir/sid/us-npi",
        "value": "123456"
      } ],
      "name": [ {
        "family": "Evil",
        "prefix": [ "Dr" ]
      } ]
    },
    "request": {
      "method": "POST",
      "url": "Practitioner/practitioner-123456"
    }
  }, {
    "fullUrl": "https://madie.cms.gov/MeasureReport/657cdac6-d14b-4cbf-be5f-43b51a7110ac",
    "resource": {
      "resourceType": "MeasureReport",
      "id": "657cdac6-d14b-4cbf-be5f-43b51a7110ac",
      "meta": {
        "profile": [ "http://hl7.org/fhir/us/cqfmeasures/StructureDefinition/test-case-cqfm" ]
      },
      "contained": [ {
        "resourceType": "Parameters",
        "id": "e92b5f3e-5bba-4c32-8a64-e717af794eb7-parameters",
        "parameter": [ {
          "name": "subject",
          "valueString": "93ddd5ec-1cd5-4894-afbb-65826d86f41e"
        } ]
      } ],
      "extension": [ {
        "url": "http://hl7.org/fhir/us/cqfmeasures/StructureDefinition/cqfm-inputParameters",
        "valueReference": {
          "reference": "#e92b5f3e-5bba-4c32-8a64-e717af794eb7-parameters"
        }
      }, {
        "url": "http://hl7.org/fhir/us/cqfmeasures/StructureDefinition/cqfm-testCaseDescription",
        "valueMarkdown": "\"Diagnosis = Afib/flutter during encounter\nThis case tests the denominator diagnosis criteria (meets criteria). \"\n"
      } ],
      "modifierExtension": [ {
        "url": "http://hl7.org/fhir/us/cqfmeasures/StructureDefinition/cqfm-isTestCase",
        "valueBoolean": true
      } ],
      "status": "complete",
      "type": "individual",
      "measure": "https://madie.cms.gov/Measure/AnticoagulationTherapyforAtrialFibrillationFlutterFHIR",
      "period": {
        "start": "2025-01-01",
        "end": "2025-12-31"
      },
      "group": [ {
        "population": [ {
          "code": {
            "coding": [ {
              "system": "http://terminology.hl7.org/CodeSystem/measure-population",
              "code": "initial-population",
              "display": "Initial Population"
            } ]
          },
          "count": 1
        }, {
          "code": {
            "coding": [ {
              "system": "http://terminology.hl7.org/CodeSystem/measure-population",
              "code": "denominator",
              "display": "Denominator"
            } ]
          },
          "count": 1
        }, {
          "code": {
            "coding": [ {
              "system": "http://terminology.hl7.org/CodeSystem/measure-population",
              "code": "denominator-exclusion",
              "display": "Denominator Exclusion"
            } ]
          },
          "count": 0
        }, {
          "code": {
            "coding": [ {
              "system": "http://terminology.hl7.org/CodeSystem/measure-population",
              "code": "numerator",
              "display": "Numerator"
            } ]
          },
          "count": 0
        }, {
          "code": {
            "coding": [ {
              "system": "http://terminology.hl7.org/CodeSystem/measure-population",
              "code": "denominator-exception",
              "display": "Denominator Exception"
            } ]
          },
          "count": 0
        } ]
      } ],
      "evaluatedResource": [ {
        "reference": "https://madie.cms.gov/Patient/93ddd5ec-1cd5-4894-afbb-65826d86f41e"
      }, {
        "reference": "https://madie.cms.gov/Condition/5c953f97b848462de0ae40e7"
      }, {
        "reference": "https://madie.cms.gov/Encounter/5c953f97b848462de0ae40e8"
      }, {
        "reference": "https://madie.cms.gov/Coverage/5f2c53ce1c76ba5c99605768"
      }, {
        "reference": "https://madie.cms.gov/Condition/ischemic-stroke-197a"
      }, {
        "reference": "https://madie.cms.gov/Organization/123456"
      }, {
        "reference": "https://madie.cms.gov/Practitioner/practitioner-123456"
      } ]
    },
    "request": {
      "method": "POST",
      "url": "MeasureReport/657cdac6-d14b-4cbf-be5f-43b51a7110ac"
    }
  } ]
}