{
  "resourceType": "Bundle",
  "id": "16496849846513511313",
  "type": "transaction",
  "entry": [ {
    "fullUrl": "https://madie.cms.gov/Patient/40b4796d-dba8-4232-8cb4-8daf5d13a554",
    "resource": {
      "resourceType": "Patient",
      "id": "40b4796d-dba8-4232-8cb4-8daf5d13a554",
      "meta": {
        "profile": [ "http://hl7.org/fhir/us/qicore/StructureDefinition/qicore-patient" ]
      },
      "extension": [ {
        "url": "http://hl7.org/fhir/us/core/StructureDefinition/us-core-race",
        "extension": [ {
          "url": "ombCategory",
          "valueCoding": {
            "system": "urn:oid:2.16.840.1.113883.6.238",
            "code": "1002-5",
            "display": "American Indian or Alaska Native"
          }
        }, {
          "url": "text",
          "valueString": "American Indian or Alaska Native"
        } ]
      }, {
        "url": "http://hl7.org/fhir/us/core/StructureDefinition/us-core-ethnicity",
        "extension": [ {
          "url": "ombCategory",
          "valueCoding": {
            "system": "urn:oid:2.16.840.1.113883.6.238",
            "code": "2186-5",
            "display": "Not Hispanic or Latino"
          }
        }, {
          "url": "text",
          "valueString": "Not Hispanic or Latino"
        } ]
      } ],
      "identifier": [ {
        "type": {
          "coding": [ {
            "system": "http://terminology.hl7.org/CodeSystem/v2-0203",
            "code": "MR"
          } ]
        },
        "system": "https://bonnie-fhir.healthit.gov/",
        "value": "654613165163513"
      } ],
      "active": true,
      "name": [ {
        "use": "usual",
        "family": "NUMERPop1Fail",
        "given": [ "OverlapsAfterSameDay" ]
      } ],
      "gender": "male",
      "birthDate": "1967-12-14"
    },
    "request": {
      "method": "PUT",
      "url": "Patient/40b4796d-dba8-4232-8cb4-8daf5d13a554"
    }
  }, {
    "fullUrl": "https://madie.cms.gov/Encounter/Encounter-Encounter-5c954d9cb848462de0ae6eee",
    "resource": {
      "resourceType": "Encounter",
      "id": "Encounter-5c954d9cb848462de0ae6eee",
      "meta": {
        "profile": [ "http://hl7.org/fhir/us/qicore/StructureDefinition/qicore-encounter" ]
      },
      "status": "finished",
      "class": {
        "system": "http://terminology.hl7.org/CodeSystem/v3-ActCode",
        "code": "AMB",
        "display": "ambulatory encounter"
      },
      "type": [ {
        "coding": [ {
          "system": "http://snomed.info/sct",
          "version": "http://snomed.info/sct/731000124108/version/202303",
          "code": "185463005"
        } ]
      } ],
      "subject": {
        "reference": "Patient/40b4796d-dba8-4232-8cb4-8daf5d13a554"
      },
      "period": {
        "start": "2025-03-04T20:00:00+00:00",
        "end": "2025-03-04T20:00:00+00:00"
      },
      "length": {
        "value": 0,
        "unit": "days"
      }
    },
    "request": {
      "method": "PUT",
      "url": "Encounter/Encounter-5c954d9cb848462de0ae6eee"
    }
  }, {
    "fullUrl": "https://madie.cms.gov/Encounter/Encounter-Encounter-5c954d9cb848462de0ae6eef",
    "resource": {
      "resourceType": "Encounter",
      "id": "Encounter-5c954d9cb848462de0ae6eef",
      "meta": {
        "profile": [ "http://hl7.org/fhir/us/qicore/StructureDefinition/qicore-encounter" ]
      },
      "status": "finished",
      "class": {
        "system": "http://terminology.hl7.org/CodeSystem/v3-ActCode",
        "code": "AMB",
        "display": "ambulatory encounter"
      },
      "type": [ {
        "coding": [ {
          "system": "http://www.ama-assn.org/go/cpt",
          "version": "2023",
          "code": "99205"
        } ]
      } ],
      "subject": {
        "reference": "Patient/40b4796d-dba8-4232-8cb4-8daf5d13a554"
      },
      "period": {
        "start": "2025-08-23T06:00:00+00:00",
        "end": "2025-08-23T06:00:00+00:00"
      },
      "length": {
        "value": 0,
        "unit": "days"
      }
    },
    "request": {
      "method": "PUT",
      "url": "Encounter/Encounter-5c954d9cb848462de0ae6eef"
    }
  }, {
    "fullUrl": "https://madie.cms.gov/Observation/5c954d9cb848462de0ae6ef1",
    "resource": {
      "resourceType": "Observation",
      "id": "5c954d9cb848462de0ae6ef1",
      "meta": {
        "profile": [ "http://hl7.org/fhir/us/qicore/StructureDefinition/qicore-observation" ]
      },
      "status": "final",
      "category": [ {
        "coding": [ {
          "system": "http://terminology.hl7.org/CodeSystem/observation-category",
          "code": "imaging",
          "display": "Imaging"
        } ]
      } ],
      "code": {
        "coding": [ {
          "system": "http://loinc.org",
          "code": "18049-7"
        } ]
      },
      "subject": {
        "reference": "Patient/40b4796d-dba8-4232-8cb4-8daf5d13a554"
      },
      "effectiveDateTime": "2025-03-04T08:00:00.000+00:00",
      "valueQuantity": {
        "value": 30,
        "unit": "%",
        "system": "http://unitsofmeasure.org",
        "code": "%"
      }
    },
    "request": {
      "method": "PUT",
      "url": "Observation/Observation-5c954d9cb848462de0ae6ef1"
    }
  }, {
    "fullUrl": "https://madie.cms.gov/MedicationRequest/MedicationRequest-1684946981651163",
    "resource": {
      "resourceType": "MedicationRequest",
      "id": "MedicationRequest-1684946981651163",
      "meta": {
        "profile": [ "http://hl7.org/fhir/us/qicore/StructureDefinition/qicore-medicationrequest" ]
      },
      "status": "active",
      "intent": "order",
      "medicationCodeableConcept": {
        "coding": [ {
          "system": "http://www.nlm.nih.gov/research/umls/rxnorm",
          "version": "04032023",
          "code": "1999031",
          "display": "24 HR metoprolol succinate 100 MG Extended Release Oral Capsule"
        } ]
      },
      "subject": {
        "reference": "Patient/40b4796d-dba8-4232-8cb4-8daf5d13a554"
      },
      "authoredOn": "2024-03-04T10:45:00+00:00",
      "requester": {
        "reference": "Practitioner/Practitioner-685451313213"
      },
      "dosageInstruction": [ {
        "timing": {
          "repeat": {
            "boundsPeriod": {
              "start": "2024-03-04T10:45:00+00:00",
              "end": "2025-08-23T10:00:00+00:00"
            }
          }
        }
      } ]
    },
    "request": {
      "method": "PUT",
      "url": "MedicationRequest/MedicationRequest-1684946981651163"
    }
  }, {
    "fullUrl": "https://madie.cms.gov/Practitioner/Practitioner-685451313213",
    "resource": {
      "resourceType": "Practitioner",
      "id": "Practitioner-685451313213",
      "meta": {
        "profile": [ "http://hl7.org/fhir/us/qicore/StructureDefinition/qicore-practitioner" ]
      },
      "identifier": [ {
        "use": "temp",
        "system": "urn:oid:2.16.840.1.113883.4.336",
        "value": "Practitioner-23"
      } ],
      "active": true,
      "name": [ {
        "family": "Careful",
        "given": [ "Adam" ],
        "prefix": [ "Dr" ]
      } ],
      "address": [ {
        "use": "home",
        "line": [ "534 Erewhon St" ],
        "city": "PleasantVille",
        "state": "UT",
        "postalCode": "84414"
      } ],
      "qualification": [ {
        "identifier": [ {
          "system": "http://example.org/UniversityIdentifier",
          "value": "12345"
        } ],
        "code": {
          "coding": [ {
            "system": "http://terminology.hl7.org/CodeSystem/v2-0360|2.7",
            "code": "BS",
            "display": "Bachelor of Science"
          } ],
          "text": "Bachelor of Science"
        },
        "period": {
          "start": "1995"
        },
        "issuer": {
          "display": "Example University"
        }
      } ]
    },
    "request": {
      "method": "PUT",
      "url": "Practitioner/Practitioner-685451313213"
    }
  }, {
    "fullUrl": "https://madie.cms.gov/Condition/Condition-10354165435135134",
    "resource": {
      "resourceType": "Condition",
      "id": "Condition-10354165435135134",
      "meta": {
        "profile": [ "http://hl7.org/fhir/us/qicore/StructureDefinition/qicore-condition" ]
      },
      "clinicalStatus": {
        "coding": [ {
          "system": "http://terminology.hl7.org/CodeSystem/condition-clinical",
          "code": "active",
          "display": "Active"
        } ]
      },
      "verificationStatus": {
        "coding": [ {
          "system": "http://terminology.hl7.org/CodeSystem/condition-ver-status",
          "code": "confirmed",
          "display": "Confirmed"
        } ]
      },
      "category": [ {
        "coding": [ {
          "system": "http://terminology.hl7.org/CodeSystem/condition-category",
          "code": "problem-list-item",
          "display": "Problem List Item"
        } ]
      } ],
      "code": {
        "coding": [ {
          "system": "http://snomed.info/sct",
          "version": "http://snomed.info/sct/731000124108/version/202303",
          "code": "10365005",
          "display": "Right main coronary artery thrombosis (disorder)",
          "userSelected": true
        } ]
      },
      "subject": {
        "reference": "Patient/40b4796d-dba8-4232-8cb4-8daf5d13a554"
      },
      "onsetPeriod": {
        "start": "2025-08-23T05:00:00.000+00:00"
      }
    },
    "request": {
      "method": "PUT",
      "url": "Condition/Condition-10354165435135134"
    }
  }, {
    "fullUrl": "https://madie.cms.gov/MeasureReport/466d982c-efba-403b-9d49-796303896bbb",
    "resource": {
      "resourceType": "MeasureReport",
      "id": "466d982c-efba-403b-9d49-796303896bbb",
      "meta": {
        "profile": [ "http://hl7.org/fhir/us/cqfmeasures/StructureDefinition/test-case-cqfm" ]
      },
      "contained": [ {
        "resourceType": "Parameters",
        "id": "492a4899-df8a-4ecd-aec9-e2b503be0d33-parameters",
        "parameter": [ {
          "name": "subject",
          "valueString": "40b4796d-dba8-4232-8cb4-8daf5d13a554"
        } ]
      } ],
      "extension": [ {
        "url": "http://hl7.org/fhir/us/cqfmeasures/StructureDefinition/cqfm-inputParameters",
        "valueReference": {
          "reference": "#492a4899-df8a-4ecd-aec9-e2b503be0d33-parameters"
        }
      }, {
        "url": "http://hl7.org/fhir/us/cqfmeasures/StructureDefinition/cqfm-testCaseDescription",
        "valueMarkdown": "Pt > 18, 2 visits in MP, a CAD Encounter, a LVEF of 30%, but a medication order b4 1st visit"
      } ],
      "modifierExtension": [ {
        "url": "http://hl7.org/fhir/us/cqfmeasures/StructureDefinition/cqfm-isTestCase",
        "valueBoolean": true
      } ],
      "status": "complete",
      "type": "individual",
      "measure": "https://madie.cms.gov/Measure/CADBetaBlockerTherapyPriorMIorLVSDFHIR",
      "period": {
        "start": "2025-01-01",
        "end": "2025-12-31"
      },
      "group": [ {
        "population": [ {
          "code": {
            "coding": [ {
              "system": "http://terminology.hl7.org/CodeSystem/measure-population",
              "code": "initial-population",
              "display": "Initial Population"
            } ]
          },
          "count": 1
        }, {
          "code": {
            "coding": [ {
              "system": "http://terminology.hl7.org/CodeSystem/measure-population",
              "code": "denominator",
              "display": "Denominator"
            } ]
          },
          "count": 1
        }, {
          "code": {
            "coding": [ {
              "system": "http://terminology.hl7.org/CodeSystem/measure-population",
              "code": "numerator",
              "display": "Numerator"
            } ]
          },
          "count": 0
        }, {
          "code": {
            "coding": [ {
              "system": "http://terminology.hl7.org/CodeSystem/measure-population",
              "code": "denominator-exception",
              "display": "Denominator Exception"
            } ]
          },
          "count": 0
        } ]
      }, {
        "population": [ {
          "code": {
            "coding": [ {
              "system": "http://terminology.hl7.org/CodeSystem/measure-population",
              "code": "initial-population",
              "display": "Initial Population"
            } ]
          },
          "count": 1
        }, {
          "code": {
            "coding": [ {
              "system": "http://terminology.hl7.org/CodeSystem/measure-population",
              "code": "denominator",
              "display": "Denominator"
            } ]
          },
          "count": 0
        }, {
          "code": {
            "coding": [ {
              "system": "http://terminology.hl7.org/CodeSystem/measure-population",
              "code": "numerator",
              "display": "Numerator"
            } ]
          },
          "count": 0
        }, {
          "code": {
            "coding": [ {
              "system": "http://terminology.hl7.org/CodeSystem/measure-population",
              "code": "denominator-exception",
              "display": "Denominator Exception"
            } ]
          },
          "count": 0
        } ]
      } ],
      "evaluatedResource": [ {
        "reference": "Patient/40b4796d-dba8-4232-8cb4-8daf5d13a554"
      }, {
        "reference": "Encounter/Encounter-5c954d9cb848462de0ae6eee"
      }, {
        "reference": "Encounter/Encounter-5c954d9cb848462de0ae6eef"
      }, {
        "reference": "Observation/5c954d9cb848462de0ae6ef1"
      }, {
        "reference": "MedicationRequest/MedicationRequest-1684946981651163"
      }, {
        "reference": "Practitioner/Practitioner-685451313213"
      }, {
        "reference": "Condition/Condition-10354165435135134"
      } ]
    },
    "request": {
      "method": "PUT",
      "url": "MeasureReport/466d982c-efba-403b-9d49-796303896bbb"
    }
  } ]
}