{
  "resourceType": "Bundle",
  "id": "612e6a5402c62a011f2e9a75",
  "type": "transaction",
  "entry": [ {
    "fullUrl": "https://madie.cms.gov/Patient/29ed471c-3393-43d4-a234-2550851b2bc7",
    "resource": {
      "resourceType": "Patient",
      "id": "29ed471c-3393-43d4-a234-2550851b2bc7",
      "meta": {
        "profile": [ "http://hl7.org/fhir/us/qicore/StructureDefinition/qicore-patient" ]
      },
      "text": {
        "status": "generated",
        "div": "<div xmlns=\"http://www.w3.org/1999/xhtml\"><div class=\"hapiHeaderText\">TestMultipleOccur_1inIPP1FailIPPdueToDx <b>NUMERPASS </b></div><table class=\"hapiPropertyTable\"><tbody><tr><td>Identifier</td><td>d7fcba6cb5e90ce5458a4e79a6dfe7a0</td></tr><tr><td>Date of birth</td><td><span>02 January 1974</span></td></tr></tbody></table></div>"
      },
      "extension": [ {
        "url": "http://hl7.org/fhir/us/core/StructureDefinition/us-core-race",
        "extension": [ {
          "url": "ombCategory",
          "valueCoding": {
            "system": "urn:oid:2.16.840.1.113883.6.238",
            "code": "1002-5",
            "display": "American Indian or Alaska Native",
            "userSelected": true
          }
        }, {
          "url": "text",
          "valueString": "American Indian or Alaska Native"
        } ]
      }, {
        "url": "http://hl7.org/fhir/us/core/StructureDefinition/us-core-ethnicity",
        "extension": [ {
          "url": "ombCategory",
          "valueCoding": {
            "system": "urn:oid:2.16.840.1.113883.6.238",
            "code": "2135-2",
            "display": "Hispanic or Latino",
            "userSelected": true
          }
        }, {
          "url": "text",
          "valueString": "Hispanic or Latino"
        } ]
      } ],
      "identifier": [ {
        "type": {
          "coding": [ {
            "system": "http://terminology.hl7.org/CodeSystem/v2-0203",
            "code": "MR"
          } ]
        },
        "system": "https://bonnie-fhir.healthit.gov/",
        "value": "612e6a5402c62a011f2e9a75"
      } ],
      "active": true,
      "name": [ {
        "use": "usual",
        "family": "NUMERPass",
        "given": [ "TestMultipleOccur_1inIPP1FailIPPdueToDx" ]
      } ],
      "gender": "male",
      "birthDate": "1974-01-02"
    },
    "request": {
      "method": "POST",
      "url": "Patient/29ed471c-3393-43d4-a234-2550851b2bc7"
    }
  }, {
    "fullUrl": "https://madie.cms.gov/Encounter/5ca62964b8484628b8de1f21",
    "resource": {
      "resourceType": "Encounter",
      "id": "5ca62964b8484628b8de1f21",
      "meta": {
        "profile": [ "http://hl7.org/fhir/us/qicore/StructureDefinition/qicore-encounter" ]
      },
      "status": "finished",
      "class": {
        "system": "http://terminology.hl7.org/CodeSystem/v3-ActCode",
        "code": "IMP",
        "display": "inpatient encounter"
      },
      "type": [ {
        "coding": [ {
          "system": "http://snomed.info/sct",
          "code": "8715000"
        } ]
      } ],
      "subject": {
        "reference": "Patient/29ed471c-3393-43d4-a234-2550851b2bc7"
      },
      "period": {
        "start": "2025-10-19T08:00:00+00:00",
        "end": "2025-10-31T08:15:00+00:00"
      },
      "length": {
        "value": 12.0,
        "unit": "days"
      },
      "diagnosis": [ {
        "condition": {
          "reference": "Condition/obstetrics-vte-2501"
        },
        "use": {
          "coding": [ {
            "system": "http://snomed.info/sct",
            "code": "10217006",
            "display": "Obstetrics"
          } ]
        }
      } ]
    },
    "request": {
      "method": "POST",
      "url": "Encounter/5ca62964b8484628b8de1f21"
    }
  }, {
    "fullUrl": "https://madie.cms.gov/Encounter/5ca62964b8484628b8de1f22",
    "resource": {
      "resourceType": "Encounter",
      "id": "5ca62964b8484628b8de1f22",
      "meta": {
        "profile": [ "http://hl7.org/fhir/us/qicore/StructureDefinition/qicore-encounter" ]
      },
      "status": "finished",
      "class": {
        "system": "http://terminology.hl7.org/CodeSystem/v3-ActCode",
        "code": "IMP",
        "display": "inpatient encounter"
      },
      "type": [ {
        "coding": [ {
          "system": "http://snomed.info/sct",
          "code": "8715000"
        } ]
      } ],
      "subject": {
        "reference": "Patient/29ed471c-3393-43d4-a234-2550851b2bc7"
      },
      "period": {
        "start": "2025-11-01T08:00:00+00:00",
        "end": "2025-11-26T08:15:00+00:00"
      },
      "length": {
        "value": 25.0,
        "unit": "days"
      }
    },
    "request": {
      "method": "POST",
      "url": "Encounter/5ca62964b8484628b8de1f22"
    }
  }, {
    "fullUrl": "https://madie.cms.gov/Coverage/5fa041481c76ba66d9959157",
    "resource": {
      "resourceType": "Coverage",
      "id": "5fa041481c76ba66d9959157",
      "status": "active",
      "beneficiary": {
        "reference": "Patient/29ed471c-3393-43d4-a234-2550851b2bc7"
      },
      "period": {
        "start": "1974-01-02T08:00:00+00:00"
      },
      "payor": [ {
        "reference": "Organization/123456"
      } ]
    },
    "request": {
      "method": "POST",
      "url": "Coverage/5fa041481c76ba66d9959157"
    }
  }, {
    "fullUrl": "https://madie.cms.gov/Condition/obstetrics-vte-2501",
    "resource": {
      "resourceType": "Condition",
      "id": "obstetrics-vte-2501",
      "meta": {
        "profile": [ "http://hl7.org/fhir/us/qicore/StructureDefinition/qicore-condition" ]
      },
      "category": [ {
        "coding": [ {
          "system": "http://terminology.hl7.org/CodeSystem/condition-category",
          "code": "encounter-diagnosis",
          "display": "Encounter Diagnosis"
        } ]
      } ],
      "code": {
        "coding": [ {
          "system": "http://snomed.info/sct",
          "version": "2025-03",
          "code": "13943000",
          "display": "Failed attempted abortion complicated by embolism (disorder)",
          "userSelected": true
        } ]
      },
      "subject": {
        "reference": "Patient/29ed471c-3393-43d4-a234-2550851b2bc7"
      },
      "recordedDate": "2025-10-20T08:00:00.000+00:00"
    },
    "request": {
      "method": "POST",
      "url": "Condition/obstetrics-vte-2501"
    }
  }, {
    "fullUrl": "https://madie.cms.gov/Procedure/device-application-2504",
    "resource": {
      "resourceType": "Procedure",
      "id": "device-application-2504",
      "meta": {
        "profile": [ "http://hl7.org/fhir/us/qicore/StructureDefinition/qicore-procedure" ]
      },
      "extension": [ {
        "url": "http://hl7.org/fhir/us/qicore/StructureDefinition/qicore-recorded",
        "valueDateTime": "2012-11-02T09:35:00-04:00"
      } ],
      "status": "completed",
      "code": {
        "coding": [ {
          "system": "http://snomed.info/sct",
          "code": "443448006",
          "display": "Application of intermittent pneumatic compression device (procedure)"
        } ]
      },
      "subject": {
        "reference": "Patient/29ed471c-3393-43d4-a234-2550851b2bc7"
      },
      "performedDateTime": "2025-11-01T09:00:00.000+00:00"
    },
    "request": {
      "method": "POST",
      "url": "Procedure/device-application-2504"
    }
  }, {
    "fullUrl": "https://madie.cms.gov/Organization/123456",
    "resource": {
      "resourceType": "Organization",
      "id": "123456",
      "meta": {
        "profile": [ "http://hl7.org/fhir/us/qicore/StructureDefinition/qicore-organization" ]
      },
      "identifier": [ {
        "use": "temp",
        "system": "urn:oid:2.16.840.1.113883.4.4",
        "value": "21-3259825"
      } ],
      "active": true,
      "type": [ {
        "coding": [ {
          "system": "http://terminology.hl7.org/CodeSystem/organization-type",
          "code": "pay",
          "display": "Payer"
        } ]
      } ],
      "name": "Blue Cross Blue Shield of Texas",
      "telecom": [ {
        "system": "phone",
        "value": "(+1) 972-766-6900"
      } ],
      "address": [ {
        "use": "billing",
        "type": "postal",
        "line": [ "P.O. Box 660044" ],
        "city": "Dallas",
        "state": "TX",
        "postalCode": "75266-0044",
        "country": "USA"
      } ]
    },
    "request": {
      "method": "POST",
      "url": "Organization/123456"
    }
  }, {
    "fullUrl": "https://madie.cms.gov/Practitioner/practitioner-123456",
    "resource": {
      "resourceType": "Practitioner",
      "id": "practitioner-123456",
      "identifier": [ {
        "system": "http://hl7.org/fhir/sid/us-npi",
        "value": "123456"
      } ],
      "name": [ {
        "family": "Evil",
        "prefix": [ "Dr" ]
      } ]
    },
    "request": {
      "method": "POST",
      "url": "Practitioner/practitioner-123456"
    }
  }, {
    "fullUrl": "https://madie.cms.gov/MeasureReport/dea54909-c063-4bd4-ab6a-b03ed9acb4f7",
    "resource": {
      "resourceType": "MeasureReport",
      "id": "dea54909-c063-4bd4-ab6a-b03ed9acb4f7",
      "meta": {
        "profile": [ "http://hl7.org/fhir/us/cqfmeasures/StructureDefinition/test-case-cqfm" ]
      },
      "contained": [ {
        "resourceType": "Parameters",
        "id": "3a53c322-1e04-4fef-88b3-13a91da0e6d1-parameters",
        "parameter": [ {
          "name": "subject",
          "valueString": "29ed471c-3393-43d4-a234-2550851b2bc7"
        } ]
      } ],
      "extension": [ {
        "url": "http://hl7.org/fhir/us/cqfmeasures/StructureDefinition/cqfm-inputParameters",
        "valueReference": {
          "reference": "#3a53c322-1e04-4fef-88b3-13a91da0e6d1-parameters"
        }
      }, {
        "url": "http://hl7.org/fhir/us/cqfmeasures/StructureDefinition/cqfm-testCaseDescription",
        "valueMarkdown": "Patient has 2 encounters, first encounter has Obstetrics diagnosis, but second encounter has no ob diagnosis and IPC applied <=1 day after start of encounter\n"
      } ],
      "modifierExtension": [ {
        "url": "http://hl7.org/fhir/us/cqfmeasures/StructureDefinition/cqfm-isTestCase",
        "valueBoolean": true
      } ],
      "status": "complete",
      "type": "individual",
      "measure": "https://madie.cms.gov/Measure/VenousThromboembolismProphylaxisFHIR",
      "period": {
        "start": "2025-01-01",
        "end": "2025-12-31"
      },
      "group": [ {
        "population": [ {
          "code": {
            "coding": [ {
              "system": "http://terminology.hl7.org/CodeSystem/measure-population",
              "code": "initial-population",
              "display": "Initial Population"
            } ]
          },
          "count": 1
        }, {
          "code": {
            "coding": [ {
              "system": "http://terminology.hl7.org/CodeSystem/measure-population",
              "code": "denominator",
              "display": "Denominator"
            } ]
          },
          "count": 1
        }, {
          "code": {
            "coding": [ {
              "system": "http://terminology.hl7.org/CodeSystem/measure-population",
              "code": "denominator-exclusion",
              "display": "Denominator Exclusion"
            } ]
          },
          "count": 0
        }, {
          "code": {
            "coding": [ {
              "system": "http://terminology.hl7.org/CodeSystem/measure-population",
              "code": "numerator",
              "display": "Numerator"
            } ]
          },
          "count": 1
        } ]
      } ],
      "evaluatedResource": [ {
        "reference": "https://madie.cms.gov/Patient/29ed471c-3393-43d4-a234-2550851b2bc7"
      }, {
        "reference": "https://madie.cms.gov/Encounter/5ca62964b8484628b8de1f21"
      }, {
        "reference": "https://madie.cms.gov/Encounter/5ca62964b8484628b8de1f22"
      }, {
        "reference": "https://madie.cms.gov/Coverage/5fa041481c76ba66d9959157"
      }, {
        "reference": "https://madie.cms.gov/Condition/obstetrics-vte-2501"
      }, {
        "reference": "https://madie.cms.gov/Procedure/device-application-2504"
      }, {
        "reference": "https://madie.cms.gov/Organization/123456"
      }, {
        "reference": "https://madie.cms.gov/Practitioner/practitioner-123456"
      } ]
    },
    "request": {
      "method": "POST",
      "url": "MeasureReport/dea54909-c063-4bd4-ab6a-b03ed9acb4f7"
    }
  } ]
}