{"resourceType":"Bundle","id":"tests-9095a79b-8e0a-4348-93be-1fb2fe63ae44-bundle","type":"transaction","entry":[{"fullUrl":"https://madie.cms.gov/Patient/9095a79b-8e0a-4348-93be-1fb2fe63ae44","resource":{"resourceType":"Patient","id":"9095a79b-8e0a-4348-93be-1fb2fe63ae44","meta":{"profile":["http://hl7.org/fhir/us/qicore/StructureDefinition/qicore-patient"]},"text":{"status":"generated","div":"<div xmlns=\"http://www.w3.org/1999/xhtml\"><div class=\"hapiHeaderText\">MAInjXaDayAfICU <b>NUMERPASS </b></div><table class=\"hapiPropertyTable\"><tbody><tr><td>Identifier</td><td>0f1ead663b0075a3e74fb3655fe4cfdf</td></tr><tr><td>Date of birth</td><td><span>03 March 1974</span></td></tr></tbody></table></div>"},"extension":[{"url":"http://hl7.org/fhir/us/core/StructureDefinition/us-core-race","extension":[{"url":"ombCategory","valueCoding":{"system":"urn:oid:2.16.840.1.113883.6.238","code":"1002-5","display":"American Indian or Alaska Native","userSelected":true}},{"url":"text","valueString":"American Indian or Alaska Native"}]},{"url":"http://hl7.org/fhir/us/core/StructureDefinition/us-core-ethnicity","extension":[{"url":"ombCategory","valueCoding":{"system":"urn:oid:2.16.840.1.113883.6.238","code":"2135-2","display":"Hispanic or Latino","userSelected":true}},{"url":"text","valueString":"Hispanic or Latino"}]}],"identifier":[{"type":{"coding":[{"system":"http://terminology.hl7.org/CodeSystem/v2-0203","code":"MR"}]},"system":"https://bonnie-fhir.healthit.gov/","value":"612e6f7d02c62a011f2f2008"}],"active":true,"name":[{"use":"usual","family":"NUMERPass","given":["MAInjXaDayAfICU"]}],"gender":"female","birthDate":"1975-03-03"},"request":{"method":"PUT","url":"Patient/9095a79b-8e0a-4348-93be-1fb2fe63ae44"}},{"fullUrl":"https://madie.cms.gov/Encounter/f6fa59b1-f346-4e1b-bf47-8b1efc235ac7","resource":{"resourceType":"Encounter","id":"f6fa59b1-f346-4e1b-bf47-8b1efc235ac7","meta":{"profile":["http://hl7.org/fhir/us/qicore/StructureDefinition/qicore-encounter"]},"status":"finished","class":{"system":"http://terminology.hl7.org/CodeSystem/v3-ActCode","code":"IMP","display":"inpatient encounter"},"type":[{"coding":[{"system":"http://snomed.info/sct","code":"8715000"}]}],"subject":{"reference":"Patient/9095a79b-8e0a-4348-93be-1fb2fe63ae44"},"period":{"start":"2026-12-04T08:00:00+00:00","end":"2026-12-30T08:15:00+00:00"},"length":{"value":26.0,"unit":"days"},"location":[{"location":{"reference":"Location/09929c2d-36fb-442b-9087-67477e983bce"},"period":{"start":"2026-12-06T09:00:00.000+00:00","end":"2026-12-12T08:15:00.000+00:00"}}]},"request":{"method":"PUT","url":"Encounter/f6fa59b1-f346-4e1b-bf47-8b1efc235ac7"}},{"fullUrl":"https://madie.cms.gov/Coverage/d3632502-84a2-4c1f-b133-cc026724325b","resource":{"resourceType":"Coverage","id":"d3632502-84a2-4c1f-b133-cc026724325b","status":"active","beneficiary":{"reference":"Patient/9095a79b-8e0a-4348-93be-1fb2fe63ae44"},"period":{"start":"1975-03-03T08:00:00+00:00"},"payor":[{"reference":"Organization/890316dc-a4ad-43b4-ba6f-9fb9e6eca282"}]},"request":{"method":"PUT","url":"Coverage/d3632502-84a2-4c1f-b133-cc026724325b"}},{"fullUrl":"https://madie.cms.gov/Location/09929c2d-36fb-442b-9087-67477e983bce","resource":{"resourceType":"Location","id":"09929c2d-36fb-442b-9087-67477e983bce","meta":{"profile":["http://hl7.org/fhir/us/qicore/StructureDefinition/qicore-location"]},"identifier":[{"use":"usual","system":"http://exampleoflocation.com","value":"B1-S.F2"}],"name":"Medical Surgical East, first floor","type":[{"coding":[{"system":"https://www.cdc.gov/nhsn/cdaportal/terminology/codesystem/hsloc.html","version":"2020","code":"1025-6","display":"Trauma Critical Care","userSelected":true}]}]},"request":{"method":"PUT","url":"Location/09929c2d-36fb-442b-9087-67477e983bce"}},{"fullUrl":"https://madie.cms.gov/MedicationAdministration/10643480-f2b8-40b9-b134-f9da0cce60e9","resource":{"resourceType":"MedicationAdministration","id":"10643480-f2b8-40b9-b134-f9da0cce60e9","meta":{"profile":["http://hl7.org/fhir/us/qicore/StructureDefinition/qicore-medicationadministration"]},"status":"completed","medicationCodeableConcept":{"coding":[{"system":"http://www.nlm.nih.gov/research/umls/rxnorm","code":"861356"}]},"subject":{"reference":"Patient/9095a79b-8e0a-4348-93be-1fb2fe63ae44"},"effectivePeriod":{"start":"2026-12-07T11:00:00+00:00","end":"2026-12-07T11:05:00+00:00"}},"request":{"method":"PUT","url":"MedicationAdministration/10643480-f2b8-40b9-b134-f9da0cce60e9"}},{"fullUrl":"https://madie.cms.gov/Organization/98c2a545-a8c3-4aa6-85fa-331a0a061c75","resource":{"resourceType":"Organization","id":"890316dc-a4ad-43b4-ba6f-9fb9e6eca282","meta":{"profile":["http://hl7.org/fhir/us/qicore/StructureDefinition/qicore-organization"]},"identifier":[{"use":"temp","system":"urn:oid:2.16.840.1.113883.4.4","value":"21-3259825"}],"active":true,"type":[{"coding":[{"system":"http://terminology.hl7.org/CodeSystem/organization-type","code":"pay","display":"Payer"}]}],"name":"Blue Cross Blue Shield of Texas","telecom":[{"system":"phone","value":"(+1) 972-766-6900"}],"address":[{"use":"billing","type":"postal","line":["P.O. Box 660044"],"city":"Dallas","state":"TX","postalCode":"75266-0044","country":"USA"}]},"request":{"method":"PUT","url":"Organization/890316dc-a4ad-43b4-ba6f-9fb9e6eca282"}},{"fullUrl":"https://madie.cms.gov/MeasureReport/70575871-7c6d-4fd2-bd2d-c20a3e24da95","resource":{"resourceType":"MeasureReport","id":"70575871-7c6d-4fd2-bd2d-c20a3e24da95","meta":{"profile":["http://hl7.org/fhir/us/cqfmeasures/StructureDefinition/test-case-cqfm"]},"contained":[{"resourceType":"Parameters","id":"00dca69a-ceb8-41c2-abe8-e7c01cc2ecc4-parameters","parameter":[{"name":"subject","valueString":"9095a79b-8e0a-4348-93be-1fb2fe63ae44"}]}],"extension":[{"url":"http://hl7.org/fhir/us/cqfmeasures/StructureDefinition/cqfm-inputParameters","valueReference":{"reference":"#00dca69a-ceb8-41c2-abe8-e7c01cc2ecc4-parameters"}},{"url":"http://hl7.org/fhir/us/cqfmeasures/StructureDefinition/cqfm-testCaseDescription","valueMarkdown":"Injectable Oral Factor Xa administered on day after ICU start date\n"}],"modifierExtension":[{"url":"http://hl7.org/fhir/us/cqfmeasures/StructureDefinition/cqfm-isTestCase","valueBoolean":true}],"status":"complete","type":"individual","measure":"https://madie.cms.gov/Measure/CMS190VTEProphylaxisICUFHIR","period":{"start":"2026-01-01","end":"2026-12-31"},"group":[{"population":[{"code":{"coding":[{"system":"http://terminology.hl7.org/CodeSystem/measure-population","code":"initial-population","display":"Initial Population"}]},"count":1},{"code":{"coding":[{"system":"http://terminology.hl7.org/CodeSystem/measure-population","code":"denominator","display":"Denominator"}]},"count":1},{"code":{"coding":[{"system":"http://terminology.hl7.org/CodeSystem/measure-population","code":"denominator-exclusion","display":"Denominator Exclusion"}]},"count":0},{"code":{"coding":[{"system":"http://terminology.hl7.org/CodeSystem/measure-population","code":"numerator","display":"Numerator"}]},"count":1},{"code":{"coding":[{"system":"http://terminology.hl7.org/CodeSystem/measure-population","code":"denominator-exception","display":"Denominator Exception"}]},"count":0}]}]},"request":{"method":"PUT","url":"MeasureReport/70575871-7c6d-4fd2-bd2d-c20a3e24da95"}}]}