{"resourceType":"Bundle","id":"tests-2ba8879a-0026-4837-ba3c-d9c4504dadf7-bundle","type":"transaction","entry":[{"fullUrl":"https://madie.cms.gov/Patient/2ba8879a-0026-4837-ba3c-d9c4504dadf7","resource":{"resourceType":"Patient","id":"2ba8879a-0026-4837-ba3c-d9c4504dadf7","meta":{"profile":["http://hl7.org/fhir/us/qicore/StructureDefinition/qicore-patient"]},"text":{"status":"generated","div":"<div xmlns=\"http://www.w3.org/1999/xhtml\"><div class=\"hapiHeaderText\">ICUStartConcurrentEncStart <b>DENOMPASS </b></div><table class=\"hapiPropertyTable\"><tbody><tr><td>Identifier</td><td>d2ffb757f543275338776a1648cb3dc0</td></tr><tr><td>Date of birth</td><td><span>31 January 1979</span></td></tr></tbody></table></div>"},"extension":[{"url":"http://hl7.org/fhir/us/core/StructureDefinition/us-core-race","extension":[{"url":"ombCategory","valueCoding":{"system":"urn:oid:2.16.840.1.113883.6.238","code":"1002-5","display":"American Indian or Alaska Native","userSelected":true}},{"url":"text","valueString":"American Indian or Alaska Native"}]},{"url":"http://hl7.org/fhir/us/core/StructureDefinition/us-core-ethnicity","extension":[{"url":"ombCategory","valueCoding":{"system":"urn:oid:2.16.840.1.113883.6.238","code":"2135-2","display":"Hispanic or Latino","userSelected":true}},{"url":"text","valueString":"Hispanic or Latino"}]}],"identifier":[{"type":{"coding":[{"system":"http://terminology.hl7.org/CodeSystem/v2-0203","code":"MR"}]},"system":"https://bonnie-fhir.healthit.gov/","value":"612e6f1602c62a011f2f0b00"}],"active":true,"name":[{"use":"usual","family":"DENOMPass","given":["ICUStartConcurrentEncStart"]}],"gender":"male","birthDate":"1980-01-31"},"request":{"method":"PUT","url":"Patient/2ba8879a-0026-4837-ba3c-d9c4504dadf7"}},{"fullUrl":"https://madie.cms.gov/Encounter/ed352524-e311-40a9-92dd-d934d48fce60","resource":{"resourceType":"Encounter","id":"ed352524-e311-40a9-92dd-d934d48fce60","meta":{"profile":["http://hl7.org/fhir/us/qicore/StructureDefinition/qicore-encounter"]},"status":"finished","class":{"system":"http://terminology.hl7.org/CodeSystem/v3-ActCode","code":"IMP","display":"inpatient encounter"},"type":[{"coding":[{"system":"http://snomed.info/sct","code":"8715000"}]}],"subject":{"reference":"Patient/2ba8879a-0026-4837-ba3c-d9c4504dadf7"},"period":{"start":"2026-12-01T08:00:00+00:00","end":"2026-12-31T23:59:00+00:00"},"length":{"value":30.0,"unit":"days"},"location":[{"location":{"reference":"Location/e5472435-0943-4217-9c85-c1404307a0e0"},"period":{"start":"2026-12-01T08:00:00+00:00","end":"2026-12-03T11:59:00+00:00"}}]},"request":{"method":"PUT","url":"Encounter/ed352524-e311-40a9-92dd-d934d48fce60"}},{"fullUrl":"https://madie.cms.gov/Coverage/1c6e5a6c-d4a0-4ed9-a17a-459029d1997a","resource":{"resourceType":"Coverage","id":"1c6e5a6c-d4a0-4ed9-a17a-459029d1997a","status":"active","beneficiary":{"reference":"Patient/2ba8879a-0026-4837-ba3c-d9c4504dadf7"},"period":{"start":"1975-03-03T08:00:00+00:00"},"payor":[{"reference":"Organization/5ad6ea38-07e9-4482-9e1b-c09eee595be9"}]},"request":{"method":"PUT","url":"Coverage/1c6e5a6c-d4a0-4ed9-a17a-459029d1997a"}},{"fullUrl":"https://madie.cms.gov/Location/e5472435-0943-4217-9c85-c1404307a0e0","resource":{"resourceType":"Location","id":"e5472435-0943-4217-9c85-c1404307a0e0","meta":{"profile":["http://hl7.org/fhir/us/qicore/StructureDefinition/qicore-location"]},"identifier":[{"use":"usual","system":"http://exampleoflocation.com","value":"B1-S.F2"}],"name":"Medical Surgical East, first floor","type":[{"coding":[{"system":"https://www.cdc.gov/nhsn/cdaportal/terminology/codesystem/hsloc.html","code":"1025-6","display":"Trauma Critical Care","userSelected":true}]}]},"request":{"method":"PUT","url":"Location/e5472435-0943-4217-9c85-c1404307a0e0"}},{"fullUrl":"https://madie.cms.gov/Organization/295d79c1-2b54-4ee0-9de6-6a3669f5bbd5","resource":{"resourceType":"Organization","id":"5ad6ea38-07e9-4482-9e1b-c09eee595be9","meta":{"profile":["http://hl7.org/fhir/us/qicore/StructureDefinition/qicore-organization"]},"identifier":[{"use":"temp","system":"urn:oid:2.16.840.1.113883.4.4","value":"21-3259825"}],"active":true,"type":[{"coding":[{"system":"http://terminology.hl7.org/CodeSystem/organization-type","code":"pay","display":"Payer"}]}],"name":"Blue Cross Blue Shield of Texas","telecom":[{"system":"phone","value":"(+1) 972-766-6900"}],"address":[{"use":"billing","type":"postal","line":["P.O. Box 660044"],"city":"Dallas","state":"TX","postalCode":"75266-0044","country":"USA"}]},"request":{"method":"PUT","url":"Organization/5ad6ea38-07e9-4482-9e1b-c09eee595be9"}},{"fullUrl":"https://madie.cms.gov/Practitioner/dc81acda-26a2-4597-8ffd-cdd7291f68f9","resource":{"resourceType":"Practitioner","id":"dc81acda-26a2-4597-8ffd-cdd7291f68f9","identifier":[{"system":"http://hl7.org/fhir/sid/us-npi","value":"123456"}],"name":[{"family":"Evil","prefix":["Dr"]}]},"request":{"method":"PUT","url":"Practitioner/dc81acda-26a2-4597-8ffd-cdd7291f68f9"}},{"fullUrl":"https://madie.cms.gov/MeasureReport/149ec524-87cf-4b93-99e6-8baf3929bf53","resource":{"resourceType":"MeasureReport","id":"149ec524-87cf-4b93-99e6-8baf3929bf53","meta":{"profile":["http://hl7.org/fhir/us/cqfmeasures/StructureDefinition/test-case-cqfm"]},"contained":[{"resourceType":"Parameters","id":"47665ebd-affa-48e9-8b03-4d4568b92b58-parameters","parameter":[{"name":"subject","valueString":"2ba8879a-0026-4837-ba3c-d9c4504dadf7"}]}],"extension":[{"url":"http://hl7.org/fhir/us/cqfmeasures/StructureDefinition/cqfm-inputParameters","valueReference":{"reference":"#47665ebd-affa-48e9-8b03-4d4568b92b58-parameters"}},{"url":"http://hl7.org/fhir/us/cqfmeasures/StructureDefinition/cqfm-testCaseDescription","valueMarkdown":"ICU starts concurrent with admission\n"}],"modifierExtension":[{"url":"http://hl7.org/fhir/us/cqfmeasures/StructureDefinition/cqfm-isTestCase","valueBoolean":true}],"status":"complete","type":"individual","measure":"https://madie.cms.gov/Measure/CMS190VTEProphylaxisICUFHIR","period":{"start":"2026-01-01","end":"2026-12-31"},"group":[{"population":[{"code":{"coding":[{"system":"http://terminology.hl7.org/CodeSystem/measure-population","code":"initial-population","display":"Initial Population"}]},"count":1},{"code":{"coding":[{"system":"http://terminology.hl7.org/CodeSystem/measure-population","code":"denominator","display":"Denominator"}]},"count":1},{"code":{"coding":[{"system":"http://terminology.hl7.org/CodeSystem/measure-population","code":"denominator-exclusion","display":"Denominator Exclusion"}]},"count":0},{"code":{"coding":[{"system":"http://terminology.hl7.org/CodeSystem/measure-population","code":"numerator","display":"Numerator"}]},"count":0},{"code":{"coding":[{"system":"http://terminology.hl7.org/CodeSystem/measure-population","code":"denominator-exception","display":"Denominator Exception"}]},"count":0}]}]},"request":{"method":"PUT","url":"MeasureReport/149ec524-87cf-4b93-99e6-8baf3929bf53"}}]}