{"resourceType":"Bundle","id":"tests-1a51a056-fa89-4986-8580-f727a402a441-bundle","type":"transaction","entry":[{"fullUrl":"https://madie.cms.gov/Patient/1a51a056-fa89-4986-8580-f727a402a441","resource":{"resourceType":"Patient","id":"1a51a056-fa89-4986-8580-f727a402a441","meta":{"profile":["http://hl7.org/fhir/us/qicore/StructureDefinition/qicore-patient"]},"text":{"status":"generated","div":"<div xmlns=\"http://www.w3.org/1999/xhtml\"><div class=\"hapiHeaderText\">CMPerfRvltPerStartNULLEndsDayOfICU <b>DENEXFAIL </b></div><table class=\"hapiPropertyTable\"><tbody><tr><td>Identifier</td><td>2a65a26f9f7578ed1148174b365eff5a</td></tr><tr><td>Date of birth</td><td><span>03 March 1974</span></td></tr></tbody></table></div>"},"extension":[{"url":"http://hl7.org/fhir/us/core/StructureDefinition/us-core-race","extension":[{"url":"ombCategory","valueCoding":{"system":"urn:oid:2.16.840.1.113883.6.238","code":"1002-5","display":"American Indian or Alaska Native","userSelected":true}},{"url":"text","valueString":"American Indian or Alaska Native"}]},{"url":"http://hl7.org/fhir/us/core/StructureDefinition/us-core-ethnicity","extension":[{"url":"ombCategory","valueCoding":{"system":"urn:oid:2.16.840.1.113883.6.238","code":"2135-2","display":"Hispanic or Latino","userSelected":true}},{"url":"text","valueString":"Hispanic or Latino"}]}],"identifier":[{"type":{"coding":[{"system":"http://terminology.hl7.org/CodeSystem/v2-0203","code":"MR"}]},"system":"https://bonnie-fhir.healthit.gov/","value":"612e6f8d02c62a011f2f23f7"}],"active":true,"name":[{"use":"usual","family":"DENEXFail","given":["CMPerfRvltPerStartNULLEndsDayOfICU"]}],"gender":"female","birthDate":"1975-03-03"},"request":{"method":"PUT","url":"Patient/1a51a056-fa89-4986-8580-f727a402a441"}},{"fullUrl":"https://madie.cms.gov/Encounter/08497e70-11dd-4329-b1d6-704dfa61c207","resource":{"resourceType":"Encounter","id":"08497e70-11dd-4329-b1d6-704dfa61c207","meta":{"profile":["http://hl7.org/fhir/us/qicore/StructureDefinition/qicore-encounter"]},"status":"finished","class":{"system":"http://terminology.hl7.org/CodeSystem/v3-ActCode","code":"IMP","display":"inpatient encounter"},"type":[{"coding":[{"system":"http://snomed.info/sct","code":"8715000"}]}],"subject":{"reference":"Patient/1a51a056-fa89-4986-8580-f727a402a441"},"period":{"start":"2026-12-04T08:00:00+00:00","end":"2026-12-30T08:15:00+00:00"},"length":{"value":26.0,"unit":"days"},"location":[{"location":{"reference":"Location/929fd178-202d-46a4-8f51-fe701fe15feb"},"period":{"start":"2026-12-06T08:00:00.000+00:00","end":"2026-12-12T08:15:00.000+00:00"}}]},"request":{"method":"PUT","url":"Encounter/08497e70-11dd-4329-b1d6-704dfa61c207"}},{"fullUrl":"https://madie.cms.gov/Procedure/bbed366a-03dc-4fee-80de-ba435abf741e","resource":{"resourceType":"Procedure","id":"bbed366a-03dc-4fee-80de-ba435abf741e","meta":{"profile":["http://hl7.org/fhir/us/qicore/StructureDefinition/qicore-procedure"]},"extension":[{"url":"http://hl7.org/fhir/us/qicore/StructureDefinition/qicore-recorded","valueDateTime":"2013-12-04T09:35:00-04:00"}],"status":"completed","code":{"coding":[{"system":"http://snomed.info/sct","code":"133918004"}]},"subject":{"reference":"Patient/1a51a056-fa89-4986-8580-f727a402a441"},"performedPeriod":{"end":"2026-12-06T08:15:00+00:00"}},"request":{"method":"PUT","url":"Procedure/bbed366a-03dc-4fee-80de-ba435abf741e"}},{"fullUrl":"https://madie.cms.gov/Coverage/975dbc56-405b-4e71-860d-d1c24f6c7a43","resource":{"resourceType":"Coverage","id":"975dbc56-405b-4e71-860d-d1c24f6c7a43","status":"active","beneficiary":{"reference":"Patient/1a51a056-fa89-4986-8580-f727a402a441"},"period":{"start":"1975-03-03T08:00:00+00:00"},"payor":[{"reference":"Organization/3e899f33-84eb-4634-a770-a5a0bd7a80e7"}]},"request":{"method":"PUT","url":"Coverage/975dbc56-405b-4e71-860d-d1c24f6c7a43"}},{"fullUrl":"https://madie.cms.gov/Location/929fd178-202d-46a4-8f51-fe701fe15feb","resource":{"resourceType":"Location","id":"929fd178-202d-46a4-8f51-fe701fe15feb","meta":{"profile":["http://hl7.org/fhir/us/qicore/StructureDefinition/qicore-location"]},"identifier":[{"use":"usual","system":"http://exampleoflocation.com","value":"B1-S.F2"}],"name":"Medical Surgical East, first floor","type":[{"coding":[{"system":"https://www.cdc.gov/nhsn/cdaportal/terminology/codesystem/hsloc.html","code":"1025-6","display":"Trauma Critical Care","userSelected":true}]}]},"request":{"method":"PUT","url":"Location/929fd178-202d-46a4-8f51-fe701fe15feb"}},{"fullUrl":"https://madie.cms.gov/Organization/353ddb66-d34e-4ae7-acd2-8e6cdbdc5fcc","resource":{"resourceType":"Organization","id":"3e899f33-84eb-4634-a770-a5a0bd7a80e7","meta":{"profile":["http://hl7.org/fhir/us/qicore/StructureDefinition/qicore-organization"]},"identifier":[{"use":"temp","system":"urn:oid:2.16.840.1.113883.4.4","value":"21-3259825"}],"active":true,"type":[{"coding":[{"system":"http://terminology.hl7.org/CodeSystem/organization-type","code":"pay","display":"Payer"}]}],"name":"Blue Cross Blue Shield of Texas","telecom":[{"system":"phone","value":"(+1) 972-766-6900"}],"address":[{"use":"billing","type":"postal","line":["P.O. Box 660044"],"city":"Dallas","state":"TX","postalCode":"75266-0044","country":"USA"}]},"request":{"method":"PUT","url":"Organization/3e899f33-84eb-4634-a770-a5a0bd7a80e7"}},{"fullUrl":"https://madie.cms.gov/Practitioner/456a47ac-986b-4c06-8627-380e7161a115","resource":{"resourceType":"Practitioner","id":"456a47ac-986b-4c06-8627-380e7161a115","identifier":[{"system":"http://hl7.org/fhir/sid/us-npi","value":"123456"}],"name":[{"family":"Evil","prefix":["Dr"]}]},"request":{"method":"PUT","url":"Practitioner/456a47ac-986b-4c06-8627-380e7161a115"}},{"fullUrl":"https://madie.cms.gov/MeasureReport/6f8918b0-b3de-4624-8aad-c4fc304a8ac0","resource":{"resourceType":"MeasureReport","id":"6f8918b0-b3de-4624-8aad-c4fc304a8ac0","meta":{"profile":["http://hl7.org/fhir/us/cqfmeasures/StructureDefinition/test-case-cqfm"]},"contained":[{"resourceType":"Parameters","id":"6168556f-f1a4-4bd4-9d30-1c5a8b90e845-parameters","parameter":[{"name":"subject","valueString":"1a51a056-fa89-4986-8580-f727a402a441"}]}],"extension":[{"url":"http://hl7.org/fhir/us/cqfmeasures/StructureDefinition/cqfm-inputParameters","valueReference":{"reference":"#6168556f-f1a4-4bd4-9d30-1c5a8b90e845-parameters"}},{"url":"http://hl7.org/fhir/us/cqfmeasures/StructureDefinition/cqfm-testCaseDescription","valueMarkdown":"comfort measures Intervention Performed relevant period start time is null and ends on day of ICU\n"}],"modifierExtension":[{"url":"http://hl7.org/fhir/us/cqfmeasures/StructureDefinition/cqfm-isTestCase","valueBoolean":true}],"status":"complete","type":"individual","measure":"https://madie.cms.gov/Measure/CMS190VTEProphylaxisICUFHIR","period":{"start":"2026-01-01","end":"2026-12-31"},"group":[{"population":[{"code":{"coding":[{"system":"http://terminology.hl7.org/CodeSystem/measure-population","code":"initial-population","display":"Initial Population"}]},"count":1},{"code":{"coding":[{"system":"http://terminology.hl7.org/CodeSystem/measure-population","code":"denominator","display":"Denominator"}]},"count":1},{"code":{"coding":[{"system":"http://terminology.hl7.org/CodeSystem/measure-population","code":"denominator-exclusion","display":"Denominator Exclusion"}]},"count":0},{"code":{"coding":[{"system":"http://terminology.hl7.org/CodeSystem/measure-population","code":"numerator","display":"Numerator"}]},"count":0},{"code":{"coding":[{"system":"http://terminology.hl7.org/CodeSystem/measure-population","code":"denominator-exception","display":"Denominator Exception"}]},"count":0}]}]},"request":{"method":"PUT","url":"MeasureReport/6f8918b0-b3de-4624-8aad-c4fc304a8ac0"}}]}