{
  "resourceType": "Bundle",
  "id": "tests-71846c52-343b-4e31-95e1-b1f44cca0128-bundle",
  "type": "transaction",
  "entry": [ {
    "fullUrl": "https://madie.cms.gov/Patient/71846c52-343b-4e31-95e1-b1f44cca0128",
    "resource": {
      "resourceType": "Patient",
      "id": "71846c52-343b-4e31-95e1-b1f44cca0128",
      "meta": {
        "profile": [ "http://hl7.org/fhir/us/qicore/StructureDefinition/qicore-patient" ]
      },
      "extension": [ {
        "url": "http://hl7.org/fhir/us/core/StructureDefinition/us-core-race",
        "extension": [ {
          "url": "ombCategory",
          "valueCoding": {
            "system": "urn:oid:2.16.840.1.113883.6.238",
            "code": "2106-3",
            "display": "White"
          }
        }, {
          "url": "text",
          "valueString": "White"
        } ]
      }, {
        "url": "http://hl7.org/fhir/us/core/StructureDefinition/us-core-ethnicity",
        "extension": [ {
          "url": "ombCategory",
          "valueCoding": {
            "system": "urn:oid:2.16.840.1.113883.6.238",
            "code": "2135-2",
            "display": "Hispanic or Latino",
            "userSelected": true
          }
        }, {
          "url": "text",
          "valueString": "Hispanic or Latino"
        } ]
      } ],
      "identifier": [ {
        "type": {
          "coding": [ {
            "system": "http://terminology.hl7.org/CodeSystem/v2-0203",
            "code": "MR"
          } ]
        },
        "system": "https://smarthealth.com",
        "value": "960082319426"
      } ],
      "name": [ {
        "family": "DENEXPass",
        "given": [ "UrinaryRetentionDXWithin1YrBPHDx" ]
      } ],
      "gender": "male",
      "birthDate": "1978-01-10"
    },
    "request": {
      "method": "POST",
      "url": "Patient/71846c52-343b-4e31-95e1-b1f44cca0128"
    }
  }, {
    "fullUrl": "https://madie.cms.gov/Encounter/55509231",
    "resource": {
      "resourceType": "Encounter",
      "id": "55509231",
      "meta": {
        "profile": [ "http://hl7.org/fhir/us/qicore/StructureDefinition/qicore-encounter" ]
      },
      "status": "finished",
      "class": {
        "system": "http://terminology.hl7.org/CodeSystem/v3-ActCode",
        "code": "AMB",
        "display": "ambulatory"
      },
      "type": [ {
        "coding": [ {
          "system": "http://snomed.info/sct",
          "version": "http://snomed.info/sct/731000124108/version/202303",
          "code": "185464004",
          "display": "Out of hours visit - not night visit (procedure)",
          "userSelected": false
        } ]
      } ],
      "subject": {
        "reference": "Patient/71846c52-343b-4e31-95e1-b1f44cca0128"
      },
      "period": {
        "start": "2025-05-01T08:00:00.000+00:00",
        "end": "2025-05-01T08:30:00.000+00:00"
      }
    },
    "request": {
      "method": "POST",
      "url": "Encounter/55509231"
    }
  }, {
    "fullUrl": "https://madie.cms.gov/Condition/55509232",
    "resource": {
      "resourceType": "Condition",
      "id": "55509232",
      "meta": {
        "profile": [ "http://hl7.org/fhir/us/qicore/StructureDefinition/qicore-condition" ]
      },
      "clinicalStatus": {
        "coding": [ {
          "system": "http://terminology.hl7.org/CodeSystem/condition-clinical",
          "code": "active",
          "display": "active",
          "userSelected": true
        } ]
      },
      "verificationStatus": {
        "coding": [ {
          "system": "http://terminology.hl7.org/CodeSystem/condition-ver-status",
          "code": "confirmed",
          "display": "Confirmed",
          "userSelected": true
        } ]
      },
      "category": [ {
        "coding": [ {
          "system": "http://terminology.hl7.org/CodeSystem/condition-category",
          "code": "encounter-diagnosis",
          "display": "Encounter Diagnosis"
        } ]
      } ],
      "code": {
        "coding": [ {
          "system": "http://hl7.org/fhir/sid/icd-10-cm",
          "version": "2023",
          "code": "N40.1",
          "display": "Benign prostatic hyperplasia with lower urinary tract symptoms",
          "userSelected": true
        } ]
      },
      "subject": {
        "reference": "Patient/71846c52-343b-4e31-95e1-b1f44cca0128"
      },
      "onsetPeriod": {
        "start": "2024-12-14T15:00:00.000+00:00"
      }
    },
    "request": {
      "method": "POST",
      "url": "Condition/55509232"
    }
  }, {
    "fullUrl": "https://madie.cms.gov/Condition/55509255",
    "resource": {
      "resourceType": "Condition",
      "id": "55509255",
      "meta": {
        "profile": [ "http://hl7.org/fhir/us/qicore/StructureDefinition/qicore-condition" ]
      },
      "clinicalStatus": {
        "coding": [ {
          "system": "http://terminology.hl7.org/CodeSystem/condition-clinical",
          "code": "active",
          "display": "active",
          "userSelected": true
        } ]
      },
      "verificationStatus": {
        "coding": [ {
          "system": "http://terminology.hl7.org/CodeSystem/condition-ver-status",
          "code": "confirmed",
          "display": "Confirmed",
          "userSelected": true
        } ]
      },
      "category": [ {
        "coding": [ {
          "system": "http://terminology.hl7.org/CodeSystem/condition-category",
          "code": "encounter-diagnosis",
          "display": "Encounter Diagnosis"
        } ]
      } ],
      "code": {
        "coding": [ {
          "system": "http://snomed.info/sct",
          "version": "http://snomed.info/sct/731000124108/version/202303",
          "code": "267064002",
          "display": "Retention of urine (disorder)",
          "userSelected": false
        } ]
      },
      "subject": {
        "reference": "Patient/71846c52-343b-4e31-95e1-b1f44cca0128"
      },
      "onsetPeriod": {
        "start": "2024-12-31T00:00:00.000+00:00"
      }
    },
    "request": {
      "method": "POST",
      "url": "Condition/55509255"
    }
  }, {
    "fullUrl": "https://madie.cms.gov/Observation/55509233",
    "resource": {
      "resourceType": "Observation",
      "id": "55509233",
      "meta": {
        "profile": [ "http://hl7.org/fhir/us/qicore/StructureDefinition/qicore-observation" ]
      },
      "status": "final",
      "category": [ {
        "coding": [ {
          "system": "http://terminology.hl7.org/CodeSystem/observation-category",
          "code": "survey",
          "display": "Survey"
        } ]
      } ],
      "code": {
        "coding": [ {
          "system": "http://loinc.org",
          "version": "2.73",
          "code": "80976-4",
          "display": "International Prostate Symptom Score [IPSS]",
          "userSelected": true
        } ]
      },
      "subject": {
        "reference": "Patient/71846c52-343b-4e31-95e1-b1f44cca0128"
      },
      "effectiveDateTime": "2025-01-02T08:15:00.000+00:00",
      "valueInteger": 5
    },
    "request": {
      "method": "POST",
      "url": "Observation/55509233"
    }
  }, {
    "fullUrl": "https://madie.cms.gov/Observation/55509234",
    "resource": {
      "resourceType": "Observation",
      "id": "55509234",
      "meta": {
        "profile": [ "http://hl7.org/fhir/us/qicore/StructureDefinition/qicore-observation" ]
      },
      "status": "final",
      "category": [ {
        "coding": [ {
          "system": "http://terminology.hl7.org/CodeSystem/observation-category",
          "code": "survey",
          "display": "Survey"
        } ]
      } ],
      "code": {
        "coding": [ {
          "system": "http://loinc.org",
          "version": "2.73",
          "code": "80976-4",
          "display": "International Prostate Symptom Score [IPSS]",
          "userSelected": true
        } ]
      },
      "subject": {
        "reference": "Patient/71846c52-343b-4e31-95e1-b1f44cca0128"
      },
      "effectiveDateTime": "2025-12-01T08:15:00.000+00:00",
      "valueInteger": 2
    },
    "request": {
      "method": "POST",
      "url": "Observation/55509234"
    }
  }, {
    "fullUrl": "https://madie.cms.gov/MeasureReport/c6606c94-f32c-4463-96e7-182d5833e449",
    "resource": {
      "resourceType": "MeasureReport",
      "id": "c6606c94-f32c-4463-96e7-182d5833e449",
      "meta": {
        "profile": [ "http://hl7.org/fhir/us/cqfmeasures/StructureDefinition/test-case-cqfm" ]
      },
      "contained": [ {
        "resourceType": "Parameters",
        "id": "976c70b3-0e40-4e77-bab9-79a4dccd86ac-parameters",
        "parameter": [ {
          "name": "subject",
          "valueString": "71846c52-343b-4e31-95e1-b1f44cca0128"
        } ]
      } ],
      "extension": [ {
        "url": "http://hl7.org/fhir/us/cqfmeasures/StructureDefinition/cqfm-inputParameters",
        "valueReference": {
          "reference": "#976c70b3-0e40-4e77-bab9-79a4dccd86ac-parameters"
        }
      }, {
        "url": "http://hl7.org/fhir/us/cqfmeasures/StructureDefinition/cqfm-testCaseDescription",
        "valueMarkdown": "1stUSS1moAfterBPHle Patient with BPH Dx and also a Urniary Retention Diagnosis occuring within 1 year of BPH Diagnosis."
      } ],
      "modifierExtension": [ {
        "url": "http://hl7.org/fhir/us/cqfmeasures/StructureDefinition/cqfm-isTestCase",
        "valueBoolean": true
      } ],
      "status": "complete",
      "type": "individual",
      "measure": "https://madie.cms.gov/Measure/UrinarySymptomScoreChangeAfterBenignProstaticHyperplasiaFHIR",
      "period": {
        "start": "2025-01-01",
        "end": "2025-12-31"
      },
      "group": [ {
        "population": [ {
          "code": {
            "coding": [ {
              "system": "http://terminology.hl7.org/CodeSystem/measure-population",
              "code": "initial-population",
              "display": "Initial Population"
            } ]
          },
          "count": 1
        }, {
          "code": {
            "coding": [ {
              "system": "http://terminology.hl7.org/CodeSystem/measure-population",
              "code": "denominator",
              "display": "Denominator"
            } ]
          },
          "count": 1
        }, {
          "code": {
            "coding": [ {
              "system": "http://terminology.hl7.org/CodeSystem/measure-population",
              "code": "denominator-exclusion",
              "display": "Denominator Exclusion"
            } ]
          },
          "count": 1
        }, {
          "code": {
            "coding": [ {
              "system": "http://terminology.hl7.org/CodeSystem/measure-population",
              "code": "numerator",
              "display": "Numerator"
            } ]
          },
          "count": 0
        } ]
      } ],
      "evaluatedResource": [ {
        "reference": "https://madie.cms.gov/Patient/71846c52-343b-4e31-95e1-b1f44cca0128"
      }, {
        "reference": "https://madie.cms.gov/Encounter/55509231"
      }, {
        "reference": "https://madie.cms.gov/Condition/55509232"
      }, {
        "reference": "https://madie.cms.gov/Condition/55509255"
      }, {
        "reference": "https://madie.cms.gov/Observation/55509233"
      }, {
        "reference": "https://madie.cms.gov/Observation/55509234"
      } ]
    },
    "request": {
      "method": "POST",
      "url": "MeasureReport/c6606c94-f32c-4463-96e7-182d5833e449"
    }
  } ]
}
