{"resourceType":"Bundle","id":"tests-f1ccd667-ada1-4ca8-b4dc-fe4a9674d81a-bundle","type":"transaction","entry":[{"fullUrl":"https://madie.cms.gov/Patient/f1ccd667-ada1-4ca8-b4dc-fe4a9674d81a","resource":{"resourceType":"Patient","id":"f1ccd667-ada1-4ca8-b4dc-fe4a9674d81a","meta":{"profile":["http://hl7.org/fhir/us/qicore/StructureDefinition/qicore-patient"]},"extension":[{"url":"http://hl7.org/fhir/us/core/StructureDefinition/us-core-race","extension":[{"url":"ombCategory","valueCoding":{"system":"urn:oid:2.16.840.1.113883.6.238","code":"2106-3","display":"White"}},{"url":"text","valueString":"White"}]},{"url":"http://hl7.org/fhir/us/core/StructureDefinition/us-core-ethnicity","extension":[{"url":"ombCategory","valueCoding":{"system":"urn:oid:2.16.840.1.113883.6.238","code":"2186-5","display":"Non-Hispanic or Latino"}},{"url":"text","valueString":"Non-Hispanic or Latino"}]}],"identifier":[{"type":{"coding":[{"system":"http://terminology.hl7.org/CodeSystem/v2-0203","code":"MR"}]},"system":"https://myGoodHealthcare.com/","value":"3153213131"}],"active":true,"name":[{"use":"usual","family":"NUMERFail","given":["1stand2ndUSSEqual"]}],"gender":"male","birthDate":"1969-12-31"},"request":{"method":"PUT","url":"Patient/f1ccd667-ada1-4ca8-b4dc-fe4a9674d81a"}},{"fullUrl":"https://madie.cms.gov/Observation/464313213214","resource":{"resourceType":"Observation","id":"6ca4da57-67c1-4c78-bb7a-cdcfac63a9ae","meta":{"profile":["http://hl7.org/fhir/us/qicore/StructureDefinition/qicore-observation"]},"status":"final","category":[{"coding":[{"system":"http://terminology.hl7.org/CodeSystem/observation-category","code":"survey","display":"Survey"}]}],"code":{"coding":[{"system":"http://loinc.org","version":"2.76","code":"80976-4"}]},"subject":{"reference":"Patient/f1ccd667-ada1-4ca8-b4dc-fe4a9674d81a"},"effectivePeriod":{"start":"2025-07-01T08:00:00.000+00:00"},"valueInteger":6},"request":{"method":"PUT","url":"Observation/6ca4da57-67c1-4c78-bb7a-cdcfac63a9ae"}},{"fullUrl":"https://madie.cms.gov/Observation/46541654","resource":{"resourceType":"Observation","id":"664323f9-ab8a-47b9-8ebc-24e94bb788f6","meta":{"profile":["http://hl7.org/fhir/us/qicore/StructureDefinition/qicore-observation"]},"status":"final","category":[{"coding":[{"system":"http://terminology.hl7.org/CodeSystem/observation-category","code":"survey","display":"Survey"}]}],"code":{"coding":[{"system":"http://loinc.org","version":"2.76","code":"80976-4"}]},"subject":{"reference":"Patient/f1ccd667-ada1-4ca8-b4dc-fe4a9674d81a"},"effectivePeriod":{"start":"2025-01-31T08:00:00.000+00:00"},"valueInteger":6},"request":{"method":"PUT","url":"Observation/664323f9-ab8a-47b9-8ebc-24e94bb788f6"}},{"fullUrl":"https://madie.cms.gov/Condition/31341311313","resource":{"resourceType":"Condition","id":"7757009d-1e53-4c96-b2cc-c913a7ca5f68","meta":{"profile":["http://hl7.org/fhir/us/qicore/StructureDefinition/qicore-condition"]},"clinicalStatus":{"coding":[{"system":"http://terminology.hl7.org/CodeSystem/condition-clinical","code":"active","display":"active"}]},"verificationStatus":{"coding":[{"system":"http://terminology.hl7.org/CodeSystem/condition-ver-status","code":"confirmed","display":"Confirmed"}]},"category":[{"coding":[{"system":"http://terminology.hl7.org/CodeSystem/condition-category","code":"problem-list-item","display":"Problem List Item"}]}],"code":{"coding":[{"system":"http://hl7.org/fhir/sid/icd-10-cm","version":"2024","code":"N40.1"}]},"subject":{"reference":"Patient/f1ccd667-ada1-4ca8-b4dc-fe4a9674d81a"},"onsetPeriod":{"start":"2024-12-31T08:00:00.000+00:00"}},"request":{"method":"PUT","url":"Condition/7757009d-1e53-4c96-b2cc-c913a7ca5f68"}},{"fullUrl":"https://madie.cms.gov/Encounter/416345631321354","resource":{"resourceType":"Encounter","id":"04194947-9c3c-45a8-95bb-34bcb8e06cf5","meta":{"profile":["http://hl7.org/fhir/us/qicore/StructureDefinition/qicore-encounter"]},"status":"finished","class":{"system":"http://terminology.hl7.org/CodeSystem/v3-ActCode","code":"AMB","display":"ambulatory"},"type":[{"coding":[{"system":"http://www.ama-assn.org/go/cpt","version":"2024","code":"99203"}]}],"subject":{"reference":"Patient/f1ccd667-ada1-4ca8-b4dc-fe4a9674d81a"},"period":{"start":"2025-01-01T08:00:00+00:00","end":"2025-01-01T08:15:00+00:00"}},"request":{"method":"PUT","url":"Encounter/04194947-9c3c-45a8-95bb-34bcb8e06cf5"}},{"fullUrl":"https://madie.cms.gov/MeasureReport/7b1c2b3e-ca56-49e5-ac23-c0634a657625","resource":{"resourceType":"MeasureReport","id":"7b1c2b3e-ca56-49e5-ac23-c0634a657625","meta":{"profile":["http://hl7.org/fhir/us/cqfmeasures/StructureDefinition/test-case-cqfm"]},"contained":[{"resourceType":"Parameters","id":"5d5d8636-1b28-4353-afb0-cd468e146458-parameters","parameter":[{"name":"subject","valueString":"f1ccd667-ada1-4ca8-b4dc-fe4a9674d81a"}]}],"extension":[{"url":"http://hl7.org/fhir/us/cqfmeasures/StructureDefinition/cqfm-inputParameters","valueReference":{"reference":"#5d5d8636-1b28-4353-afb0-cd468e146458-parameters"}},{"url":"http://hl7.org/fhir/us/cqfmeasures/StructureDefinition/cqfm-testCaseDescription","valueMarkdown":"Male Patient with OV,BPH dx, initial and followup USS which have same scoring showing no improvement"}],"modifierExtension":[{"url":"http://hl7.org/fhir/us/cqfmeasures/StructureDefinition/cqfm-isTestCase","valueBoolean":true}],"status":"complete","type":"individual","measure":"https://madie.cms.gov/Measure/UrinarySymptomScoreChangeAfterBenignProstaticHyperplasiaFHIR","period":{"start":"2025-01-01","end":"2025-12-31"},"group":[{"population":[{"code":{"coding":[{"system":"http://terminology.hl7.org/CodeSystem/measure-population","code":"initial-population","display":"Initial Population"}]},"count":1},{"code":{"coding":[{"system":"http://terminology.hl7.org/CodeSystem/measure-population","code":"denominator","display":"Denominator"}]},"count":1},{"code":{"coding":[{"system":"http://terminology.hl7.org/CodeSystem/measure-population","code":"denominator-exclusion","display":"Denominator Exclusion"}]},"count":0},{"code":{"coding":[{"system":"http://terminology.hl7.org/CodeSystem/measure-population","code":"numerator","display":"Numerator"}]},"count":0}]}]},"request":{"method":"PUT","url":"MeasureReport/7b1c2b3e-ca56-49e5-ac23-c0634a657625"}}]}