{"resourceType":"Bundle","id":"tests-bf0200ab-3e37-4e90-8517-ffb351f2e563-bundle","type":"transaction","entry":[{"fullUrl":"https://madie.cms.gov/Patient/bf0200ab-3e37-4e90-8517-ffb351f2e563","resource":{"resourceType":"Patient","id":"bf0200ab-3e37-4e90-8517-ffb351f2e563","meta":{"profile":["http://hl7.org/fhir/us/qicore/StructureDefinition/qicore-patient"]},"extension":[{"url":"http://hl7.org/fhir/us/core/StructureDefinition/us-core-race","extension":[{"url":"ombCategory","valueCoding":{"system":"urn:oid:2.16.840.1.113883.6.238","code":"1002-5","display":"American Indian or Alaska Native"}},{"url":"text","valueString":"American Indian or Alaska Native"}]},{"url":"http://hl7.org/fhir/us/core/StructureDefinition/us-core-ethnicity","extension":[{"url":"ombCategory","valueCoding":{"system":"urn:oid:2.16.840.1.113883.6.238","code":"2186-5","display":"Non Hispanic or Latino"}},{"url":"text","valueString":"Non Hispanic or Latino"}]}],"identifier":[{"type":{"coding":[{"system":"http://terminology.hl7.org/CodeSystem/v2-0203","code":"MR"}]},"system":"https://GoodHealthCare.com","value":"6516516486115651"}],"active":true,"name":[{"use":"usual","family":"DENEXFail","given":["HasBMILT40"]}],"gender":"male","birthDate":"1957-12-01"},"request":{"method":"PUT","url":"Patient/bf0200ab-3e37-4e90-8517-ffb351f2e563"}},{"fullUrl":"https://madie.cms.gov/Observation/5e4454592aa3190000e19b24","resource":{"resourceType":"Observation","id":"436e3ba9-7d62-4691-9c91-a16072cb1ce8","meta":{"profile":["http://hl7.org/fhir/us/qicore/StructureDefinition/qicore-observation"]},"status":"final","category":[{"coding":[{"system":"http://terminology.hl7.org/CodeSystem/observation-category","code":"survey","display":"Survey"}]}],"code":{"coding":[{"system":"http://loinc.org","version":"2.76","code":"80976-4"}]},"subject":{"reference":"Patient/bf0200ab-3e37-4e90-8517-ffb351f2e563"},"effectivePeriod":{"start":"2025-01-14T08:00:00.000+00:00"},"valueInteger":5},"request":{"method":"PUT","url":"Observation/436e3ba9-7d62-4691-9c91-a16072cb1ce8"}},{"fullUrl":"https://madie.cms.gov/Observation/5e4454742aa3190000e19b5d","resource":{"resourceType":"Observation","id":"6424341e-3292-4d1e-ba87-e483715f3e95","meta":{"profile":["http://hl7.org/fhir/us/qicore/StructureDefinition/qicore-observation"]},"status":"final","category":[{"coding":[{"system":"http://terminology.hl7.org/CodeSystem/observation-category","code":"survey","display":"Survey"}]}],"code":{"coding":[{"system":"http://loinc.org","version":"2.76","code":"80976-4"}]},"subject":{"reference":"Patient/bf0200ab-3e37-4e90-8517-ffb351f2e563"},"effectivePeriod":{"start":"2025-10-12T08:00:00.000+00:00"},"valueInteger":3},"request":{"method":"PUT","url":"Observation/6424341e-3292-4d1e-ba87-e483715f3e95"}},{"fullUrl":"https://madie.cms.gov/Condition/5e4454232aa3190000e19ad2","resource":{"resourceType":"Condition","id":"299bfbc3-0908-47fd-8d17-f054e3d3f0a0","meta":{"profile":["http://hl7.org/fhir/us/qicore/StructureDefinition/qicore-condition"]},"clinicalStatus":{"coding":[{"system":"http://terminology.hl7.org/CodeSystem/condition-clinical","code":"active","display":"active"}]},"verificationStatus":{"coding":[{"system":"http://terminology.hl7.org/CodeSystem/condition-ver-status","code":"confirmed","display":"Confirmed"}]},"category":[{"coding":[{"system":"http://terminology.hl7.org/CodeSystem/condition-category","code":"problem-list-item","display":"Problem List Item"}]}],"code":{"coding":[{"system":"http://hl7.org/fhir/sid/icd-10-cm","version":"2024","code":"N40.1"}]},"subject":{"reference":"Patient/bf0200ab-3e37-4e90-8517-ffb351f2e563"},"onsetPeriod":{"start":"2024-12-31T08:00:00.000+00:00"}},"request":{"method":"PUT","url":"Condition/299bfbc3-0908-47fd-8d17-f054e3d3f0a0"}},{"fullUrl":"https://madie.cms.gov/Encounter/5e4454042aa3190000e19a88","resource":{"resourceType":"Encounter","id":"a0fbfcf7-2d99-440c-9ca5-731cc9719de3","meta":{"profile":["http://hl7.org/fhir/us/qicore/StructureDefinition/qicore-encounter"]},"status":"finished","class":{"system":"http://terminology.hl7.org/CodeSystem/v3-ActCode","code":"AMB","display":"ambulatory"},"type":[{"coding":[{"system":"http://www.ama-assn.org/go/cpt","version":"2024","code":"99214"}]}],"subject":{"reference":"Patient/bf0200ab-3e37-4e90-8517-ffb351f2e563"},"period":{"start":"2025-02-12T08:00:00+00:00","end":"2025-02-12T09:15:00+00:00"}},"request":{"method":"PUT","url":"Encounter/a0fbfcf7-2d99-440c-9ca5-731cc9719de3"}},{"fullUrl":"https://madie.cms.gov/Observation/5fd3a731cb17330000e054d1","resource":{"resourceType":"Observation","id":"70f97162-b555-4ea3-8e9f-c528cc0b2966","meta":{"profile":["http://hl7.org/fhir/StructureDefinition/bmi"]},"status":"final","category":[{"coding":[{"system":"http://terminology.hl7.org/CodeSystem/observation-category","code":"vital-signs","display":"Vital Signs"}]}],"code":{"coding":[{"system":"http://loinc.org","version":"2.76","code":"39156-5"}]},"subject":{"reference":"Patient/bf0200ab-3e37-4e90-8517-ffb351f2e563"},"effectiveDateTime":"2025-01-14T08:00:00.000+00:00","valueQuantity":{"value":39.9,"unit":"kg/m2","system":"http://unitsofmeasure.org","code":"kg/m2"}},"request":{"method":"PUT","url":"Observation/70f97162-b555-4ea3-8e9f-c528cc0b2966"}},{"fullUrl":"https://madie.cms.gov/MeasureReport/20995332-9df1-45f1-91d0-600a92d9c4f6","resource":{"resourceType":"MeasureReport","id":"20995332-9df1-45f1-91d0-600a92d9c4f6","meta":{"profile":["http://hl7.org/fhir/us/cqfmeasures/StructureDefinition/test-case-cqfm"]},"contained":[{"resourceType":"Parameters","id":"ef61300e-6661-4f7c-8b9c-fa11216f44d8-parameters","parameter":[{"name":"subject","valueString":"bf0200ab-3e37-4e90-8517-ffb351f2e563"}]}],"extension":[{"url":"http://hl7.org/fhir/us/cqfmeasures/StructureDefinition/cqfm-inputParameters","valueReference":{"reference":"#ef61300e-6661-4f7c-8b9c-fa11216f44d8-parameters"}},{"url":"http://hl7.org/fhir/us/cqfmeasures/StructureDefinition/cqfm-testCaseDescription","valueMarkdown":"Patient meeting initial population/denominator criteria also has BMI observation which does not meet the denominator exclusion criteria of greater then or equal to 40"}],"modifierExtension":[{"url":"http://hl7.org/fhir/us/cqfmeasures/StructureDefinition/cqfm-isTestCase","valueBoolean":true}],"status":"complete","type":"individual","measure":"https://madie.cms.gov/Measure/UrinarySymptomScoreChangeAfterBenignProstaticHyperplasiaFHIR","period":{"start":"2025-01-01","end":"2025-12-31"},"group":[{"population":[{"code":{"coding":[{"system":"http://terminology.hl7.org/CodeSystem/measure-population","code":"initial-population","display":"Initial Population"}]},"count":1},{"code":{"coding":[{"system":"http://terminology.hl7.org/CodeSystem/measure-population","code":"denominator","display":"Denominator"}]},"count":1},{"code":{"coding":[{"system":"http://terminology.hl7.org/CodeSystem/measure-population","code":"denominator-exclusion","display":"Denominator Exclusion"}]},"count":0},{"code":{"coding":[{"system":"http://terminology.hl7.org/CodeSystem/measure-population","code":"numerator","display":"Numerator"}]},"count":0}]}]},"request":{"method":"PUT","url":"MeasureReport/20995332-9df1-45f1-91d0-600a92d9c4f6"}}]}