{
  "resourceType": "Bundle",
  "id": "tests-623a7f40-c265-4e42-a5c5-6f54e20b19df-bundle",
  "type": "transaction",
  "entry": [ {
    "fullUrl": "https://madie.cms.gov/Patient/623a7f40-c265-4e42-a5c5-6f54e20b19df",
    "resource": {
      "resourceType": "Patient",
      "id": "623a7f40-c265-4e42-a5c5-6f54e20b19df",
      "meta": {
        "profile": [ "http://hl7.org/fhir/us/qicore/StructureDefinition/qicore-patient" ]
      },
      "extension": [ {
        "url": "http://hl7.org/fhir/us/core/StructureDefinition/us-core-race",
        "extension": [ {
          "url": "ombCategory",
          "valueCoding": {
            "system": "urn:oid:2.16.840.1.113883.6.238",
            "code": "2054-5",
            "display": "Black or African American"
          }
        }, {
          "url": "text",
          "valueString": "Black or African American"
        } ]
      }, {
        "url": "http://hl7.org/fhir/us/core/StructureDefinition/us-core-ethnicity",
        "extension": [ {
          "url": "ombCategory",
          "valueCoding": {
            "system": "urn:oid:2.16.840.1.113883.6.238",
            "code": "2135-2",
            "display": "Hispanic or Latino",
            "userSelected": true
          }
        }, {
          "url": "text",
          "valueString": "Hispanic or Latino"
        } ]
      } ],
      "identifier": [ {
        "type": {
          "coding": [ {
            "system": "http://terminology.hl7.org/CodeSystem/v2-0203",
            "code": "MR"
          } ]
        },
        "system": "https://GoodHealthCare.com",
        "value": "960082319426"
      } ],
      "name": [ {
        "family": "DENEXFail",
        "given": [ "UrinaryRetentionDxUnconfirmed" ]
      } ],
      "gender": "male",
      "birthDate": "1969-01-01"
    },
    "request": {
      "method": "PUT",
      "url": "Patient/623a7f40-c265-4e42-a5c5-6f54e20b19df"
    }
  }, {
    "fullUrl": "https://madie.cms.gov/Encounter/enc-55509231",
    "resource": {
      "resourceType": "Encounter",
      "id": "55509231",
      "meta": {
        "profile": [ "http://hl7.org/fhir/us/qicore/StructureDefinition/qicore-encounter" ]
      },
      "status": "finished",
      "class": {
        "system": "http://terminology.hl7.org/CodeSystem/v3-ActCode",
        "code": "AMB",
        "display": "ambulatory"
      },
      "type": [ {
        "coding": [ {
          "system": "http://snomed.info/sct",
          "version": "http://snomed.info/sct/731000124108/version/202303",
          "code": "185464004",
          "display": "Out of hours visit - not night visit (procedure)",
          "userSelected": false
        } ]
      } ],
      "subject": {
        "reference": "Patient/623a7f40-c265-4e42-a5c5-6f54e20b19df"
      },
      "period": {
        "start": "2025-05-01T08:00:00.000+00:00",
        "end": "2025-05-01T08:30:00.000+00:00"
      }
    },
    "request": {
      "method": "PUT",
      "url": "Encounter/enc-55509231"
    }
  }, {
    "fullUrl": "https://madie.cms.gov/Condition/con-55509232",
    "resource": {
      "resourceType": "Condition",
      "id": "55509232",
      "meta": {
        "profile": [ "http://hl7.org/fhir/us/qicore/StructureDefinition/qicore-condition" ]
      },
      "clinicalStatus": {
        "coding": [ {
          "system": "http://terminology.hl7.org/CodeSystem/condition-clinical",
          "code": "active",
          "display": "active",
          "userSelected": true
        } ]
      },
      "verificationStatus": {
        "coding": [ {
          "system": "http://terminology.hl7.org/CodeSystem/condition-ver-status",
          "code": "confirmed",
          "display": "Confirmed",
          "userSelected": true
        } ]
      },
      "category": [ {
        "coding": [ {
          "system": "http://terminology.hl7.org/CodeSystem/condition-category",
          "code": "encounter-diagnosis",
          "display": "Encounter Diagnosis"
        } ]
      } ],
      "code": {
        "coding": [ {
          "system": "http://hl7.org/fhir/sid/icd-10-cm",
          "version": "2023",
          "code": "N40.1",
          "display": "Benign prostatic hyperplasia with lower urinary tract symptoms",
          "userSelected": true
        } ]
      },
      "subject": {
        "reference": "Patient/623a7f40-c265-4e42-a5c5-6f54e20b19df"
      },
      "onsetPeriod": {
        "start": "2024-12-14T15:00:00.000+00:00"
      }
    },
    "request": {
      "method": "PUT",
      "url": "Condition/con-55509232"
    }
  }, {
    "fullUrl": "https://madie.cms.gov/Condition/con-55509255",
    "resource": {
      "resourceType": "Condition",
      "id": "55509255",
      "meta": {
        "profile": [ "http://hl7.org/fhir/us/qicore/StructureDefinition/qicore-condition" ]
      },
      "clinicalStatus": {
        "coding": [ {
          "system": "http://terminology.hl7.org/CodeSystem/condition-clinical",
          "code": "active",
          "display": "active",
          "userSelected": true
        } ]
      },
      "verificationStatus": {
        "coding": [ {
          "system": "http://terminology.hl7.org/CodeSystem/condition-ver-status",
          "code": "unconfirmed",
          "display": "Unconfirmed",
          "userSelected": true
        } ]
      },
      "category": [ {
        "coding": [ {
          "system": "http://terminology.hl7.org/CodeSystem/condition-category",
          "code": "encounter-diagnosis",
          "display": "Encounter Diagnosis"
        } ]
      } ],
      "code": {
        "coding": [ {
          "system": "http://snomed.info/sct",
          "version": "http://snomed.info/sct/731000124108/version/202303",
          "code": "267064002",
          "display": "Retention of urine (disorder)",
          "userSelected": false
        } ]
      },
      "subject": {
        "reference": "Patient/623a7f40-c265-4e42-a5c5-6f54e20b19df"
      },
      "onsetPeriod": {
        "start": "2024-12-31T00:00:00.000+00:00"
      }
    },
    "request": {
      "method": "PUT",
      "url": "Condition/con-55509255"
    }
  }, {
    "fullUrl": "https://madie.cms.gov/Observation/obs-55509233",
    "resource": {
      "resourceType": "Observation",
      "id": "55509233",
      "meta": {
        "profile": [ "http://hl7.org/fhir/us/qicore/StructureDefinition/qicore-observation" ]
      },
      "status": "final",
      "category": [ {
        "coding": [ {
          "system": "http://terminology.hl7.org/CodeSystem/observation-category",
          "code": "survey",
          "display": "Survey"
        } ]
      } ],
      "code": {
        "coding": [ {
          "system": "http://loinc.org",
          "version": "2.73",
          "code": "80976-4",
          "display": "International Prostate Symptom Score [IPSS]",
          "userSelected": true
        } ]
      },
      "subject": {
        "reference": "Patient/623a7f40-c265-4e42-a5c5-6f54e20b19df"
      },
      "effectiveDateTime": "2025-01-02T08:15:00.000+00:00",
      "valueInteger": 4
    },
    "request": {
      "method": "PUT",
      "url": "Observation/obs-55509233"
    }
  }, {
    "fullUrl": "https://madie.cms.gov/Observation/obs-55509234",
    "resource": {
      "resourceType": "Observation",
      "id": "55509234",
      "meta": {
        "profile": [ "http://hl7.org/fhir/us/qicore/StructureDefinition/qicore-observation" ]
      },
      "status": "final",
      "category": [ {
        "coding": [ {
          "system": "http://terminology.hl7.org/CodeSystem/observation-category",
          "code": "survey",
          "display": "Survey"
        } ]
      } ],
      "code": {
        "coding": [ {
          "system": "http://loinc.org",
          "version": "2.73",
          "code": "80976-4",
          "display": "International Prostate Symptom Score [IPSS]",
          "userSelected": true
        } ]
      },
      "subject": {
        "reference": "Patient/623a7f40-c265-4e42-a5c5-6f54e20b19df"
      },
      "effectiveDateTime": "2025-12-01T08:15:00.000+00:00",
      "valueInteger": 2
    },
    "request": {
      "method": "PUT",
      "url": "Observation/obs-55509234"
    }
  }, {
    "fullUrl": "https://madie.cms.gov/MeasureReport/56480444-7edf-4c77-8c13-66519089395c",
    "resource": {
      "resourceType": "MeasureReport",
      "id": "56480444-7edf-4c77-8c13-66519089395c",
      "meta": {
        "profile": [ "http://hl7.org/fhir/us/cqfmeasures/StructureDefinition/test-case-cqfm" ]
      },
      "contained": [ {
        "resourceType": "Parameters",
        "id": "12ebb106-4d06-4eb6-9492-20a63930ef08-parameters",
        "parameter": [ {
          "name": "subject",
          "valueString": "623a7f40-c265-4e42-a5c5-6f54e20b19df"
        } ]
      } ],
      "extension": [ {
        "url": "http://hl7.org/fhir/us/cqfmeasures/StructureDefinition/cqfm-inputParameters",
        "valueReference": {
          "reference": "#12ebb106-4d06-4eb6-9492-20a63930ef08-parameters"
        }
      }, {
        "url": "http://hl7.org/fhir/us/cqfmeasures/StructureDefinition/cqfm-testCaseDescription",
        "valueMarkdown": "Patient meeting initial population and denominator criteria fails denominator exclusion despite having Urinary Retention Diagnosis because it is of unconfirmed status"
      } ],
      "modifierExtension": [ {
        "url": "http://hl7.org/fhir/us/cqfmeasures/StructureDefinition/cqfm-isTestCase",
        "valueBoolean": true
      } ],
      "status": "complete",
      "type": "individual",
      "measure": "https://madie.cms.gov/Measure/UrinarySymptomScoreChangeAfterBenignProstaticHyperplasiaFHIR",
      "period": {
        "start": "2025-01-01",
        "end": "2025-12-31"
      },
      "group": [ {
        "population": [ {
          "code": {
            "coding": [ {
              "system": "http://terminology.hl7.org/CodeSystem/measure-population",
              "code": "initial-population",
              "display": "Initial Population"
            } ]
          },
          "count": 1
        }, {
          "code": {
            "coding": [ {
              "system": "http://terminology.hl7.org/CodeSystem/measure-population",
              "code": "denominator",
              "display": "Denominator"
            } ]
          },
          "count": 1
        }, {
          "code": {
            "coding": [ {
              "system": "http://terminology.hl7.org/CodeSystem/measure-population",
              "code": "denominator-exclusion",
              "display": "Denominator Exclusion"
            } ]
          },
          "count": 0
        }, {
          "code": {
            "coding": [ {
              "system": "http://terminology.hl7.org/CodeSystem/measure-population",
              "code": "numerator",
              "display": "Numerator"
            } ]
          },
          "count": 0
        } ]
      } ],
      "evaluatedResource": [ {
        "reference": "Patient/623a7f40-c265-4e42-a5c5-6f54e20b19df"
      }, {
        "reference": "Encounter/enc-55509231"
      }, {
        "reference": "Condition/con-55509232"
      }, {
        "reference": "Condition/con-55509255"
      }, {
        "reference": "Observation/obs-55509233"
      }, {
        "reference": "Observation/obs-55509234"
      } ]
    },
    "request": {
      "method": "PUT",
      "url": "MeasureReport/56480444-7edf-4c77-8c13-66519089395c"
    }
  } ]
}
