{
  "resourceType": "Bundle",
  "id": "tests-6f3d7b20-08da-459f-9d12-db2f6caa2177-bundle",
  "type": "transaction",
  "entry": [ {
    "fullUrl": "https://madie.cms.gov/Patient/6f3d7b20-08da-459f-9d12-db2f6caa2177",
    "resource": {
      "resourceType": "Patient",
      "id": "6f3d7b20-08da-459f-9d12-db2f6caa2177",
      "meta": {
        "profile": [ "http://hl7.org/fhir/us/qicore/StructureDefinition/qicore-patient" ]
      },
      "extension": [ {
        "url": "http://hl7.org/fhir/us/core/StructureDefinition/us-core-race",
        "extension": [ {
          "url": "ombCategory",
          "valueCoding": {
            "system": "urn:oid:2.16.840.1.113883.6.238",
            "code": "2106-3",
            "display": "White"
          }
        }, {
          "url": "text",
          "valueString": "White"
        } ]
      }, {
        "url": "http://hl7.org/fhir/us/core/StructureDefinition/us-core-ethnicity",
        "extension": [ {
          "url": "ombCategory",
          "valueCoding": {
            "system": "urn:oid:2.16.840.1.113883.6.238",
            "code": "2186-5",
            "display": "Non Hispanic or Latino"
          }
        }, {
          "url": "text",
          "valueString": "Non Hispanic or Latino"
        } ]
      } ],
      "identifier": [ {
        "type": {
          "coding": [ {
            "system": "http://terminology.hl7.org/CodeSystem/v2-0203",
            "code": "MR"
          } ]
        },
        "system": "https://myGoodHealthcare.com/",
        "value": "4851351681610651"
      } ],
      "name": [ {
        "family": "IPFail",
        "given": [ "2ndUSS1MinAfter12MonthBPHDx" ]
      } ],
      "gender": "other",
      "birthDate": "1942-05-13"
    },
    "request": {
      "method": "PUT",
      "url": "Patient/6f3d7b20-08da-459f-9d12-db2f6caa2177"
    }
  }, {
    "fullUrl": "https://madie.cms.gov/Encounter/enc-635431",
    "resource": {
      "resourceType": "Encounter",
      "id": "635431",
      "meta": {
        "profile": [ "http://hl7.org/fhir/us/qicore/StructureDefinition/qicore-encounter" ]
      },
      "status": "finished",
      "class": {
        "system": "http://terminology.hl7.org/CodeSystem/v3-ActCode",
        "code": "AMB",
        "display": "ambulatory"
      },
      "type": [ {
        "coding": [ {
          "system": "http://snomed.info/sct",
          "version": "http://snomed.info/sct/731000124108/version/202303",
          "code": "185463005",
          "display": "Visit out of hours (procedure)"
        } ]
      } ],
      "subject": {
        "reference": "Patient/6f3d7b20-08da-459f-9d12-db2f6caa2177"
      },
      "period": {
        "start": "2025-02-12T08:00:00.000+00:00",
        "end": "2025-02-12T08:15:00.000+00:00"
      }
    },
    "request": {
      "method": "PUT",
      "url": "Encounter/enc-635431"
    }
  }, {
    "fullUrl": "https://madie.cms.gov/Condition/con-65461532",
    "resource": {
      "resourceType": "Condition",
      "id": "65461532",
      "meta": {
        "profile": [ "http://hl7.org/fhir/us/qicore/StructureDefinition/qicore-condition" ]
      },
      "clinicalStatus": {
        "coding": [ {
          "system": "http://terminology.hl7.org/CodeSystem/condition-clinical",
          "code": "active",
          "display": "Active"
        } ]
      },
      "verificationStatus": {
        "coding": [ {
          "system": "http://terminology.hl7.org/CodeSystem/condition-ver-status",
          "code": "confirmed",
          "display": "Confirmed"
        } ]
      },
      "category": [ {
        "coding": [ {
          "system": "http://terminology.hl7.org/CodeSystem/condition-category",
          "code": "encounter-diagnosis",
          "display": "Encounter Diagnosis"
        } ]
      } ],
      "code": {
        "coding": [ {
          "system": "http://hl7.org/fhir/sid/icd-10-cm",
          "version": "2022",
          "code": "N40.1",
          "display": "Benign prostatic hyperplasia with lower urinary tract symptoms"
        } ]
      },
      "subject": {
        "reference": "Patient/6f3d7b20-08da-459f-9d12-db2f6caa2177"
      },
      "onsetPeriod": {
        "start": "2024-12-12T08:00:00.000+00:00"
      }
    },
    "request": {
      "method": "PUT",
      "url": "Condition/con-65461532"
    }
  }, {
    "fullUrl": "https://madie.cms.gov/Observation/obs-6845654",
    "resource": {
      "resourceType": "Observation",
      "id": "6845654",
      "meta": {
        "profile": [ "http://hl7.org/fhir/us/qicore/StructureDefinition/qicore-observation" ]
      },
      "status": "final",
      "category": [ {
        "coding": [ {
          "system": "http://terminology.hl7.org/CodeSystem/observation-category",
          "code": "survey",
          "display": "Survey"
        } ]
      } ],
      "code": {
        "coding": [ {
          "system": "http://loinc.org",
          "version": "2.73",
          "code": "80976-4",
          "display": "International Prostate Symptom Score [IPSS]"
        } ]
      },
      "subject": {
        "reference": "Patient/6f3d7b20-08da-459f-9d12-db2f6caa2177"
      },
      "effectiveDateTime": "2024-12-12T08:01:00.000+00:00",
      "valueInteger": 5
    },
    "request": {
      "method": "PUT",
      "url": "Observation/obs-6845654"
    }
  }, {
    "fullUrl": "https://madie.cms.gov/Observation/obs-132135",
    "resource": {
      "resourceType": "Observation",
      "id": "132135",
      "meta": {
        "profile": [ "http://hl7.org/fhir/us/qicore/StructureDefinition/qicore-observation" ]
      },
      "status": "final",
      "category": [ {
        "coding": [ {
          "system": "http://terminology.hl7.org/CodeSystem/observation-category",
          "code": "survey",
          "display": "Survey"
        } ]
      } ],
      "code": {
        "coding": [ {
          "system": "http://loinc.org",
          "version": "2.73",
          "code": "80976-4",
          "display": "International Prostate Symptom Score [IPSS]"
        } ]
      },
      "subject": {
        "reference": "Patient/6f3d7b20-08da-459f-9d12-db2f6caa2177"
      },
      "effectiveDateTime": "2024-12-13T23:59:00.000+00:00",
      "valueInteger": 2
    },
    "request": {
      "method": "PUT",
      "url": "Observation/obs-132135"
    }
  }, {
    "fullUrl": "https://madie.cms.gov/MeasureReport/7185fe48-b289-44fc-aa62-bf71daf5574e",
    "resource": {
      "resourceType": "MeasureReport",
      "id": "7185fe48-b289-44fc-aa62-bf71daf5574e",
      "meta": {
        "profile": [ "http://hl7.org/fhir/us/cqfmeasures/StructureDefinition/test-case-cqfm" ]
      },
      "contained": [ {
        "resourceType": "Parameters",
        "id": "c43a6903-4535-4ea2-a47a-4ab3d79d5e3d-parameters",
        "parameter": [ {
          "name": "subject",
          "valueString": "6f3d7b20-08da-459f-9d12-db2f6caa2177"
        } ]
      } ],
      "extension": [ {
        "url": "http://hl7.org/fhir/us/cqfmeasures/StructureDefinition/cqfm-inputParameters",
        "valueReference": {
          "reference": "#c43a6903-4535-4ea2-a47a-4ab3d79d5e3d-parameters"
        }
      }, {
        "url": "http://hl7.org/fhir/us/cqfmeasures/StructureDefinition/cqfm-testCaseDescription",
        "valueMarkdown": "Second USS Assessment required for Initial Population and Denominator is performed 1 Minute After end of 12 month period of initial BPH Dx."
      } ],
      "modifierExtension": [ {
        "url": "http://hl7.org/fhir/us/cqfmeasures/StructureDefinition/cqfm-isTestCase",
        "valueBoolean": true
      } ],
      "status": "complete",
      "type": "individual",
      "measure": "https://madie.cms.gov/Measure/UrinarySymptomScoreChangeAfterBenignProstaticHyperplasiaFHIR",
      "period": {
        "start": "2025-01-01",
        "end": "2025-12-31"
      },
      "group": [ {
        "population": [ {
          "code": {
            "coding": [ {
              "system": "http://terminology.hl7.org/CodeSystem/measure-population",
              "code": "initial-population",
              "display": "Initial Population"
            } ]
          },
          "count": 0
        }, {
          "code": {
            "coding": [ {
              "system": "http://terminology.hl7.org/CodeSystem/measure-population",
              "code": "denominator",
              "display": "Denominator"
            } ]
          },
          "count": 0
        }, {
          "code": {
            "coding": [ {
              "system": "http://terminology.hl7.org/CodeSystem/measure-population",
              "code": "denominator-exclusion",
              "display": "Denominator Exclusion"
            } ]
          },
          "count": 0
        }, {
          "code": {
            "coding": [ {
              "system": "http://terminology.hl7.org/CodeSystem/measure-population",
              "code": "numerator",
              "display": "Numerator"
            } ]
          },
          "count": 0
        } ]
      } ],
      "evaluatedResource": [ {
        "reference": "Patient/6f3d7b20-08da-459f-9d12-db2f6caa2177"
      }, {
        "reference": "Encounter/enc-635431"
      }, {
        "reference": "Condition/con-65461532"
      }, {
        "reference": "Observation/obs-6845654"
      }, {
        "reference": "Observation/obs-132135"
      } ]
    },
    "request": {
      "method": "PUT",
      "url": "MeasureReport/7185fe48-b289-44fc-aa62-bf71daf5574e"
    }
  } ]
}
