{
  "resourceType": "Bundle",
  "id": "63487c2f0968f80122540199",
  "type": "transaction",
  "entry": [ {
    "fullUrl": "https://madie.cms.gov/Patient/64bbffd3-e7b5-4cfb-8e7d-6705b46ce964",
    "resource": {
      "resourceType": "Patient",
      "id": "64bbffd3-e7b5-4cfb-8e7d-6705b46ce964",
      "meta": {
        "profile": [ "http://hl7.org/fhir/us/qicore/StructureDefinition/qicore-patient" ]
      },
      "text": {
        "status": "generated",
        "div": "<div xmlns=\"http://www.w3.org/1999/xhtml\"><div class=\"hapiHeaderText\">2EncW/in42weeksEGAeq38OnFirstEGAeq36OnSecond <b>DENFAIL </b></div><table class=\"hapiPropertyTable\"><tbody><tr><td>Identifier</td><td>d49eff12b5ae0570e385f43288917b0fcc7f54d4422938b9cf7918aaeb400005</td></tr><tr><td>Date of birth</td><td><span>14 February 1985</span></td></tr></tbody></table></div>"
      },
      "extension": [ {
        "url": "http://hl7.org/fhir/us/core/StructureDefinition/us-core-race",
        "extension": [ {
          "url": "ombCategory",
          "valueCoding": {
            "system": "urn:oid:2.16.840.1.113883.6.238",
            "code": "1002-5",
            "display": "American Indian or Alaska Native",
            "userSelected": true
          }
        }, {
          "url": "text",
          "valueString": "American Indian or Alaska Native"
        } ]
      }, {
        "url": "http://hl7.org/fhir/us/core/StructureDefinition/us-core-ethnicity",
        "extension": [ {
          "url": "ombCategory",
          "valueCoding": {
            "system": "urn:oid:2.16.840.1.113883.6.238",
            "code": "2135-2",
            "display": "Hispanic or Latino",
            "userSelected": true
          }
        }, {
          "url": "text",
          "valueString": "Hispanic or Latino"
        } ]
      } ],
      "identifier": [ {
        "type": {
          "coding": [ {
            "system": "http://terminology.hl7.org/CodeSystem/v2-0203",
            "code": "MR"
          } ]
        },
        "system": "https://bonnie-fhir.healthit.gov/",
        "value": "63487c2f0968f80122540199"
      } ],
      "active": true,
      "name": [ {
        "use": "usual",
        "family": "DENPass",
        "given": [ "2EncWin42weeksEGAeq38onBothEncounters" ]
      } ],
      "gender": "female",
      "birthDate": "1997-02-14"
    },
    "request": {
      "method": "POST",
      "url": "Patient/64bbffd3-e7b5-4cfb-8e7d-6705b46ce964"
    }
  }, {
    "fullUrl": "https://madie.cms.gov/Observation/5d4060afb848462dd07670d0",
    "resource": {
      "resourceType": "Observation",
      "id": "5d4060afb848462dd07670d0",
      "meta": {
        "profile": [ "http://hl7.org/fhir/us/qicore/StructureDefinition/qicore-observation" ]
      },
      "status": "final",
      "category": [ {
        "coding": [ {
          "system": "http://terminology.hl7.org/CodeSystem/observation-category",
          "code": "exam",
          "display": "exam",
          "userSelected": true
        } ]
      } ],
      "code": {
        "coding": [ {
          "system": "http://loinc.org",
          "code": "11884-4"
        } ]
      },
      "subject": {
        "reference": "Patient/64bbffd3-e7b5-4cfb-8e7d-6705b46ce964"
      },
      "effectiveDateTime": "2025-02-01T09:15:00.000+00:00",
      "valueQuantity": {
        "value": 38.0,
        "system": "http://unitsofmeasure.org",
        "code": "wk"
      }
    },
    "request": {
      "method": "POST",
      "url": "Observation/5d4060afb848462dd07670d0"
    }
  }, {
    "fullUrl": "https://madie.cms.gov/Observation/5d4060afb848462dd07670d3",
    "resource": {
      "resourceType": "Observation",
      "id": "5d4060afb848462dd07670d3",
      "meta": {
        "profile": [ "http://hl7.org/fhir/us/qicore/StructureDefinition/qicore-observation" ]
      },
      "status": "final",
      "category": [ {
        "coding": [ {
          "system": "http://terminology.hl7.org/CodeSystem/observation-category",
          "code": "exam",
          "display": "exam",
          "userSelected": true
        } ]
      } ],
      "code": {
        "coding": [ {
          "system": "http://loinc.org",
          "code": "11884-4"
        } ]
      },
      "subject": {
        "reference": "Patient/64bbffd3-e7b5-4cfb-8e7d-6705b46ce964"
      },
      "effectiveDateTime": "2025-11-10T08:00:00.000+00:00",
      "valueQuantity": {
        "value": 38.0,
        "system": "http://unitsofmeasure.org",
        "code": "wk"
      }
    },
    "request": {
      "method": "POST",
      "url": "Observation/5d4060afb848462dd07670d3"
    }
  }, {
    "fullUrl": "https://madie.cms.gov/Observation/5e611b58eadaae0000c2ba91",
    "resource": {
      "resourceType": "Observation",
      "id": "5e611b58eadaae0000c2ba91",
      "meta": {
        "profile": [ "http://hl7.org/fhir/us/qicore/StructureDefinition/qicore-observation" ]
      },
      "status": "final",
      "category": [ {
        "coding": [ {
          "system": "http://terminology.hl7.org/CodeSystem/observation-category",
          "code": "exam",
          "display": "exam",
          "userSelected": true
        } ]
      } ],
      "code": {
        "coding": [ {
          "system": "http://loinc.org",
          "code": "93857-1"
        } ]
      },
      "subject": {
        "reference": "Patient/64bbffd3-e7b5-4cfb-8e7d-6705b46ce964"
      },
      "effectiveDateTime": "2025-02-01T19:00:00.000+00:00",
      "valueDateTime": "2025-02-01T19:00:00+00:00"
    },
    "request": {
      "method": "POST",
      "url": "Observation/5e611b58eadaae0000c2ba91"
    }
  }, {
    "fullUrl": "https://madie.cms.gov/Observation/5e611b93eadaae0000c2bb86",
    "resource": {
      "resourceType": "Observation",
      "id": "5e611b93eadaae0000c2bb86",
      "meta": {
        "profile": [ "http://hl7.org/fhir/us/qicore/StructureDefinition/qicore-observation" ]
      },
      "status": "final",
      "category": [ {
        "coding": [ {
          "system": "http://terminology.hl7.org/CodeSystem/observation-category",
          "code": "exam",
          "display": "exam",
          "userSelected": true
        } ]
      } ],
      "code": {
        "coding": [ {
          "system": "http://loinc.org",
          "code": "93857-1"
        } ]
      },
      "subject": {
        "reference": "Patient/64bbffd3-e7b5-4cfb-8e7d-6705b46ce964"
      },
      "effectiveDateTime": "2025-11-10T08:00:00.000+00:00",
      "valueDateTime": "2025-11-10T08:00:00+00:00"
    },
    "request": {
      "method": "POST",
      "url": "Observation/5e611b93eadaae0000c2bb86"
    }
  }, {
    "fullUrl": "https://madie.cms.gov/Observation/5e713a01196c820000976152",
    "resource": {
      "resourceType": "Observation",
      "id": "5e713a01196c820000976152",
      "meta": {
        "profile": [ "http://hl7.org/fhir/us/qicore/StructureDefinition/qicore-observation" ]
      },
      "status": "final",
      "category": [ {
        "coding": [ {
          "system": "http://terminology.hl7.org/CodeSystem/observation-category",
          "code": "exam",
          "display": "exam",
          "userSelected": true
        } ]
      } ],
      "code": {
        "coding": [ {
          "system": "http://loinc.org",
          "code": "11639-2"
        } ]
      },
      "subject": {
        "reference": "Patient/64bbffd3-e7b5-4cfb-8e7d-6705b46ce964"
      },
      "effectiveDateTime": "2025-01-31T08:00:00.000+00:00",
      "valueInteger": 0
    },
    "request": {
      "method": "POST",
      "url": "Observation/5e713a01196c820000976152"
    }
  }, {
    "fullUrl": "https://madie.cms.gov/Observation/5e713a25196c820000976168",
    "resource": {
      "resourceType": "Observation",
      "id": "5e713a25196c820000976168",
      "meta": {
        "profile": [ "http://hl7.org/fhir/us/qicore/StructureDefinition/qicore-observation" ]
      },
      "status": "final",
      "category": [ {
        "coding": [ {
          "system": "http://terminology.hl7.org/CodeSystem/observation-category",
          "code": "exam",
          "display": "exam",
          "userSelected": true
        } ]
      } ],
      "code": {
        "coding": [ {
          "system": "http://loinc.org",
          "code": "11637-6"
        } ]
      },
      "subject": {
        "reference": "Patient/64bbffd3-e7b5-4cfb-8e7d-6705b46ce964"
      },
      "effectiveDateTime": "2025-01-31T08:00:00.000+00:00",
      "valueInteger": 0
    },
    "request": {
      "method": "POST",
      "url": "Observation/5e713a25196c820000976168"
    }
  }, {
    "fullUrl": "https://madie.cms.gov/Observation/5e713afd196c8200009761ce",
    "resource": {
      "resourceType": "Observation",
      "id": "5e713afd196c8200009761ce",
      "meta": {
        "profile": [ "http://hl7.org/fhir/us/qicore/StructureDefinition/qicore-observation" ]
      },
      "status": "final",
      "category": [ {
        "coding": [ {
          "system": "http://terminology.hl7.org/CodeSystem/observation-category",
          "code": "exam",
          "display": "exam",
          "userSelected": true
        } ]
      } ],
      "code": {
        "coding": [ {
          "system": "http://loinc.org",
          "code": "11639-2"
        } ]
      },
      "subject": {
        "reference": "Patient/64bbffd3-e7b5-4cfb-8e7d-6705b46ce964"
      },
      "effectiveDateTime": "2025-11-09T08:00:00.000+00:00",
      "valueInteger": 1
    },
    "request": {
      "method": "POST",
      "url": "Observation/5e713afd196c8200009761ce"
    }
  }, {
    "fullUrl": "https://madie.cms.gov/Observation/5e713b02196c8200009761e4",
    "resource": {
      "resourceType": "Observation",
      "id": "5e713b02196c8200009761e4",
      "meta": {
        "profile": [ "http://hl7.org/fhir/us/qicore/StructureDefinition/qicore-observation" ]
      },
      "status": "final",
      "category": [ {
        "coding": [ {
          "system": "http://terminology.hl7.org/CodeSystem/observation-category",
          "code": "exam",
          "display": "exam",
          "userSelected": true
        } ]
      } ],
      "code": {
        "coding": [ {
          "system": "http://loinc.org",
          "code": "11637-6"
        } ]
      },
      "subject": {
        "reference": "Patient/64bbffd3-e7b5-4cfb-8e7d-6705b46ce964"
      },
      "effectiveDateTime": "2025-11-09T08:00:00.000+00:00",
      "valueInteger": 1
    },
    "request": {
      "method": "POST",
      "url": "Observation/5e713b02196c8200009761e4"
    }
  }, {
    "fullUrl": "https://madie.cms.gov/Encounter/5d4060afb848462dd07670ce",
    "resource": {
      "resourceType": "Encounter",
      "id": "5d4060afb848462dd07670ce",
      "meta": {
        "profile": [ "http://hl7.org/fhir/us/qicore/StructureDefinition/qicore-encounter" ]
      },
      "status": "finished",
      "class": {
        "system": "http://terminology.hl7.org/CodeSystem/v3-ActCode",
        "code": "IMP",
        "display": "inpatient encounter"
      },
      "type": [ {
        "coding": [ {
          "system": "http://snomed.info/sct",
          "code": "183452005"
        } ]
      } ],
      "subject": {
        "reference": "Patient/64bbffd3-e7b5-4cfb-8e7d-6705b46ce964"
      },
      "period": {
        "start": "2025-02-01T08:00:00.000Z",
        "end": "2025-02-05T08:15:00.000Z"
      },
      "length": {
        "value": 4.0,
        "unit": "days"
      },
      "diagnosis": [ {
        "condition": {
          "reference": "Condition/delivery-of-singleton-f83c"
        },
        "use": {
          "coding": [ {
            "system": "http://snomed.info/sct",
            "code": "169826009",
            "display": "Delivery of Singleton"
          } ]
        }
      }, {
        "condition": {
          "reference": "Condition/delivery-of-singleton-9a7d"
        }
      } ]
    },
    "request": {
      "method": "POST",
      "url": "Encounter/5d4060afb848462dd07670ce"
    }
  }, {
    "fullUrl": "https://madie.cms.gov/Encounter/5d4060afb848462dd07670d5",
    "resource": {
      "resourceType": "Encounter",
      "id": "5d4060afb848462dd07670d5",
      "meta": {
        "profile": [ "http://hl7.org/fhir/us/qicore/StructureDefinition/qicore-encounter" ]
      },
      "status": "finished",
      "class": {
        "system": "http://terminology.hl7.org/CodeSystem/v3-ActCode",
        "code": "IMP",
        "display": "inpatient encounter"
      },
      "type": [ {
        "coding": [ {
          "system": "http://snomed.info/sct",
          "code": "183452005"
        } ]
      } ],
      "subject": {
        "reference": "Patient/64bbffd3-e7b5-4cfb-8e7d-6705b46ce964"
      },
      "period": {
        "start": "2025-11-10T08:00:00.000Z",
        "end": "2025-11-15T08:15:00.000Z"
      },
      "length": {
        "value": 5.0,
        "unit": "days"
      },
      "diagnosis": [ {
        "condition": {
          "reference": "Condition/delivery-of-singleton-f83c"
        },
        "use": {
          "coding": [ {
            "system": "http://snomed.info/sct",
            "code": "169826009",
            "display": "Delivery of Singleton"
          } ]
        }
      } ]
    },
    "request": {
      "method": "POST",
      "url": "Encounter/5d4060afb848462dd07670d5"
    }
  }, {
    "fullUrl": "https://madie.cms.gov/Coverage/5f5f9e4f1c76ba674bb0336d",
    "resource": {
      "resourceType": "Coverage",
      "id": "5f5f9e4f1c76ba674bb0336d",
      "status": "active",
      "beneficiary": {
        "reference": "Patient/64bbffd3-e7b5-4cfb-8e7d-6705b46ce964"
      },
      "period": {
        "start": "1985-02-14T08:00:00.000Z"
      },
      "payor": [ {
        "reference": "Organization/Org-123456"
      } ]
    },
    "request": {
      "method": "POST",
      "url": "Coverage/5f5f9e4f1c76ba674bb0336d"
    }
  }, {
    "fullUrl": "https://madie.cms.gov/Procedure/5d4060afb848462dd07670cf",
    "resource": {
      "resourceType": "Procedure",
      "id": "5d4060afb848462dd07670cf",
      "meta": {
        "profile": [ "http://hl7.org/fhir/us/qicore/StructureDefinition/qicore-procedure" ]
      },
      "extension": [ {
        "url": "http://hl7.org/fhir/us/qicore/StructureDefinition/qicore-recorded",
        "valueDateTime": "2013-04-05T09:35:00-04:00"
      } ],
      "status": "completed",
      "code": {
        "coding": [ {
          "system": "http://snomed.info/sct",
          "code": "10745001"
        }, {
          "system": "http://www.cms.gov/Medicare/Coding/ICD10",
          "code": "10D00Z0"
        }, {
          "system": "http://www.icd10data.com/icd10pcs",
          "code": "10D00Z0",
          "userSelected": true
        } ]
      },
      "subject": {
        "reference": "Patient/64bbffd3-e7b5-4cfb-8e7d-6705b46ce964"
      },
      "performedPeriod": {
        "start": "2025-02-01T08:00:00.000Z",
        "end": "2025-02-05T08:15:00.000Z"
      }
    },
    "request": {
      "method": "POST",
      "url": "Procedure/5d4060afb848462dd07670cf"
    }
  }, {
    "fullUrl": "https://madie.cms.gov/Procedure/5d4060afb848462dd07670d6",
    "resource": {
      "resourceType": "Procedure",
      "id": "5d4060afb848462dd07670d6",
      "meta": {
        "profile": [ "http://hl7.org/fhir/us/qicore/StructureDefinition/qicore-procedure" ]
      },
      "extension": [ {
        "url": "http://hl7.org/fhir/us/qicore/StructureDefinition/qicore-recorded",
        "valueDateTime": "2013-04-05T09:35:00-04:00"
      } ],
      "status": "completed",
      "code": {
        "coding": [ {
          "system": "http://snomed.info/sct",
          "code": "10745001"
        }, {
          "system": "http://www.cms.gov/Medicare/Coding/ICD10",
          "code": "10D00Z0"
        }, {
          "system": "http://www.icd10data.com/icd10pcs",
          "code": "10D00Z0",
          "userSelected": true
        } ]
      },
      "subject": {
        "reference": "Patient/64bbffd3-e7b5-4cfb-8e7d-6705b46ce964"
      },
      "performedPeriod": {
        "start": "2025-11-10T08:00:00.000Z",
        "end": "2025-11-15T08:15:00.000Z"
      }
    },
    "request": {
      "method": "POST",
      "url": "Procedure/5d4060afb848462dd07670d6"
    }
  }, {
    "fullUrl": "https://madie.cms.gov/Condition/delivery-of-singleton-9a7d",
    "resource": {
      "resourceType": "Condition",
      "id": "delivery-of-singleton-9a7d",
      "meta": {
        "profile": [ "http://hl7.org/fhir/us/qicore/StructureDefinition/qicore-condition" ]
      },
      "category": [ {
        "coding": [ {
          "system": "http://terminology.hl7.org/CodeSystem/condition-category",
          "code": "encounter-diagnosis",
          "display": "Encounter Diagnosis"
        } ]
      } ],
      "code": {
        "coding": [ {
          "system": "http://snomed.info/sct",
          "version": "2022-09",
          "code": "169826009",
          "display": "Single live birth (finding)",
          "userSelected": true
        } ]
      },
      "subject": {
        "reference": "Patient/64bbffd3-e7b5-4cfb-8e7d-6705b46ce964"
      },
      "recordedDate": "2025-10-21T08:00:00.000+00:00"
    },
    "request": {
      "method": "POST",
      "url": "Condition/delivery-of-singleton-9a7d"
    }
  }, {
    "fullUrl": "https://madie.cms.gov/Organization/123456",
    "resource": {
      "resourceType": "Organization",
      "id": "Org-123456",
      "meta": {
        "profile": [ "http://hl7.org/fhir/us/qicore/StructureDefinition/qicore-organization" ]
      },
      "identifier": [ {
        "use": "temp",
        "system": "urn:oid:2.16.840.1.113883.4.4",
        "value": "21-3259825"
      } ],
      "active": true,
      "type": [ {
        "coding": [ {
          "system": "http://terminology.hl7.org/CodeSystem/organization-type",
          "code": "pay",
          "display": "Payer"
        } ]
      } ],
      "name": "Blue Cross Blue Shield of Texas",
      "telecom": [ {
        "system": "phone",
        "value": "(+1) 972-766-6900"
      } ],
      "address": [ {
        "use": "billing",
        "type": "postal",
        "line": [ "P.O. Box 660044" ],
        "city": "Dallas",
        "state": "TX",
        "postalCode": "75266-0044",
        "country": "USA"
      } ]
    },
    "request": {
      "method": "POST",
      "url": "Organization/Org-123456"
    }
  }, {
    "fullUrl": "https://madie.cms.gov/Practitioner/practitioner-123456",
    "resource": {
      "resourceType": "Practitioner",
      "id": "practitioner-123456",
      "identifier": [ {
        "system": "http://hl7.org/fhir/sid/us-npi",
        "value": "123456"
      } ],
      "name": [ {
        "family": "Evil",
        "prefix": [ "Dr" ]
      } ]
    },
    "request": {
      "method": "POST",
      "url": "Practitioner/practitioner-123456"
    }
  }, {
    "fullUrl": "https://madie.cms.gov/MeasureReport/bcaa0589-0f5a-4f20-a4d4-0f3cea9e061f",
    "resource": {
      "resourceType": "MeasureReport",
      "id": "bcaa0589-0f5a-4f20-a4d4-0f3cea9e061f",
      "meta": {
        "profile": [ "http://hl7.org/fhir/us/cqfmeasures/StructureDefinition/test-case-cqfm" ]
      },
      "contained": [ {
        "resourceType": "Parameters",
        "id": "935c84b0-da7b-4ae3-a578-444e05442137-parameters",
        "parameter": [ {
          "name": "subject",
          "valueString": "64bbffd3-e7b5-4cfb-8e7d-6705b46ce964"
        } ]
      } ],
      "extension": [ {
        "url": "http://hl7.org/fhir/us/cqfmeasures/StructureDefinition/cqfm-inputParameters",
        "valueReference": {
          "reference": "#935c84b0-da7b-4ae3-a578-444e05442137-parameters"
        }
      }, {
        "url": "http://hl7.org/fhir/us/cqfmeasures/StructureDefinition/cqfm-testCaseDescription",
        "valueMarkdown": "\"Pregnancy 1 delivery documented 2/1/2012, Preterm & Term Births=0,EGA=38\nPregnancy 2  delivery documented 11/10/2012, Preterm & Term Births=1 & EGA=38.  Fails denom."
      } ],
      "modifierExtension": [ {
        "url": "http://hl7.org/fhir/us/cqfmeasures/StructureDefinition/cqfm-isTestCase",
        "valueBoolean": true
      } ],
      "status": "complete",
      "type": "individual",
      "measure": "https://madie.cms.gov/Measure/CesareanBirthFHIR",
      "period": {
        "start": "2025-01-01",
        "end": "2025-12-31"
      },
      "group": [ {
        "population": [ {
          "code": {
            "coding": [ {
              "system": "http://terminology.hl7.org/CodeSystem/measure-population",
              "code": "initial-population",
              "display": "Initial Population"
            } ]
          },
          "count": 2
        }, {
          "code": {
            "coding": [ {
              "system": "http://terminology.hl7.org/CodeSystem/measure-population",
              "code": "denominator",
              "display": "Denominator"
            } ]
          },
          "count": 1
        }, {
          "code": {
            "coding": [ {
              "system": "http://terminology.hl7.org/CodeSystem/measure-population",
              "code": "denominator-exclusion",
              "display": "Denominator Exclusion"
            } ]
          },
          "count": 0
        }, {
          "code": {
            "coding": [ {
              "system": "http://terminology.hl7.org/CodeSystem/measure-population",
              "code": "numerator",
              "display": "Numerator"
            } ]
          },
          "count": 1
        } ]
      } ],
      "evaluatedResource": [ {
        "reference": "Patient/64bbffd3-e7b5-4cfb-8e7d-6705b46ce964"
      }, {
        "reference": "Observation/5d4060afb848462dd07670d0"
      }, {
        "reference": "Observation/5d4060afb848462dd07670d3"
      }, {
        "reference": "Observation/5e611b58eadaae0000c2ba91"
      }, {
        "reference": "Observation/5e611b93eadaae0000c2bb86"
      }, {
        "reference": "Observation/5e713a01196c820000976152"
      }, {
        "reference": "Observation/5e713a25196c820000976168"
      }, {
        "reference": "Observation/5e713afd196c8200009761ce"
      }, {
        "reference": "Observation/5e713b02196c8200009761e4"
      }, {
        "reference": "Encounter/5d4060afb848462dd07670ce"
      }, {
        "reference": "Encounter/5d4060afb848462dd07670d5"
      }, {
        "reference": "Coverage/5f5f9e4f1c76ba674bb0336d"
      }, {
        "reference": "Procedure/5d4060afb848462dd07670cf"
      }, {
        "reference": "Procedure/5d4060afb848462dd07670d6"
      }, {
        "reference": "Condition/delivery-of-singleton-9a7d"
      }, {
        "reference": "Organization/Org-123456"
      }, {
        "reference": "Practitioner/practitioner-123456"
      } ]
    },
    "request": {
      "method": "POST",
      "url": "MeasureReport/bcaa0589-0f5a-4f20-a4d4-0f3cea9e061f"
    }
  } ]
}