{"resourceType":"Bundle","id":"tests-569ebc6b-4bc4-4b1e-9e40-c3942190d446-bundle","type":"transaction","entry":[{"fullUrl":"https://madie.cms.gov/Patient/569ebc6b-4bc4-4b1e-9e40-c3942190d446","resource":{"resourceType":"Patient","id":"569ebc6b-4bc4-4b1e-9e40-c3942190d446","meta":{"profile":["http://hl7.org/fhir/us/qicore/StructureDefinition/qicore-patient"]},"text":{"status":"generated","div":"<div xmlns=\"http://www.w3.org/1999/xhtml\"><div class=\"hapiHeaderText\">LT24beforeAndLT2after <b>WBCPASS </b></div><table class=\"hapiPropertyTable\"><tbody><tr><td>Identifier</td><td>02a3c13b70ccf5a73b893e80582952bdd83e9cabbf053902bb5eb341874dc5ec</td></tr><tr><td>Date of birth</td><td><span>15 June 1956</span></td></tr></tbody></table></div>"},"extension":[{"url":"http://hl7.org/fhir/us/core/StructureDefinition/us-core-race","extension":[{"url":"ombCategory","valueCoding":{"system":"urn:oid:2.16.840.1.113883.6.238","code":"1002-5","display":"American Indian or Alaska Native","userSelected":true}},{"url":"text","valueString":"American Indian or Alaska Native"}]},{"url":"http://hl7.org/fhir/us/core/StructureDefinition/us-core-ethnicity","extension":[{"url":"ombCategory","valueCoding":{"system":"urn:oid:2.16.840.1.113883.6.238","code":"2186-5","display":"Not Hispanic or Latino","userSelected":true}},{"url":"text","valueString":"Not Hispanic or Latino"}]}],"identifier":[{"type":{"coding":[{"system":"http://terminology.hl7.org/CodeSystem/v2-0203","code":"MR"}]},"system":"https://bonnie-fhir.healthit.gov/","value":"63ec096accb3770120fe9fa2"}],"active":true,"name":[{"use":"usual","family":"AllLabsPass","given":["ObsIPEncountersWithLabsDuringTimeframe"]}],"gender":"male","birthDate":"1960-07-01"},"request":{"method":"PUT","url":"Patient/569ebc6b-4bc4-4b1e-9e40-c3942190d446"}},{"fullUrl":"https://madie.cms.gov/Encounter/5e064eb09350f90000fe244aX","resource":{"resourceType":"Encounter","id":"56181767-997f-4c6b-98aa-558bf2a81ad0","meta":{"profile":["http://hl7.org/fhir/us/qicore/StructureDefinition/qicore-encounter"]},"status":"finished","class":{"system":"http://terminology.hl7.org/CodeSystem/v3-ActCode","code":"OBSENC","display":"observation encounter","userSelected":true},"type":[{"coding":[{"system":"http://snomed.info/sct","code":"448951000124107","display":"Admission to observation unit (procedure)"}]}],"subject":{"reference":"Patient/569ebc6b-4bc4-4b1e-9e40-c3942190d446"},"period":{"start":"2025-07-01T08:00:00.000+00:00","end":"2025-07-02T07:15:00.000+00:00"},"length":{"value":1.0,"unit":"days"}},"request":{"method":"PUT","url":"Encounter/56181767-997f-4c6b-98aa-558bf2a81ad0"}},{"fullUrl":"https://madie.cms.gov/Encounter/5e0653429350f90000fe2873","resource":{"resourceType":"Encounter","id":"eb301be4-b4b3-4d2c-93fb-2d2238278100","meta":{"profile":["http://hl7.org/fhir/us/qicore/StructureDefinition/qicore-encounter"]},"status":"finished","class":{"system":"http://terminology.hl7.org/CodeSystem/v3-ActCode","code":"IMP","display":"inpatient encounter","userSelected":true},"type":[{"coding":[{"system":"http://snomed.info/sct","code":"183452005"}]}],"subject":{"reference":"Patient/569ebc6b-4bc4-4b1e-9e40-c3942190d446"},"period":{"start":"2025-07-02T07:15:00.000+00:00","end":"2025-07-05T23:59:00.000+00:00"},"length":{"value":3,"unit":"days"}},"request":{"method":"PUT","url":"Encounter/eb301be4-b4b3-4d2c-93fb-2d2238278100"}},{"fullUrl":"https://madie.cms.gov/Observation/5b55f745b84846558c53bc2b","resource":{"resourceType":"Observation","id":"5c1ac610-f4d3-4b97-8e6e-5a3cd78893d5","meta":{"profile":["http://hl7.org/fhir/us/core/StructureDefinition/us-core-observation-lab"]},"status":"final","category":[{"coding":[{"system":"http://terminology.hl7.org/CodeSystem/observation-category","code":"laboratory","display":"laboratory","userSelected":true}]}],"code":{"coding":[{"system":"http://loinc.org","code":"14627-4","display":"Bicarbonate [Moles/volume] in Venous blood"}]},"subject":{"reference":"Patient/569ebc6b-4bc4-4b1e-9e40-c3942190d446"},"effectiveDateTime":"2025-07-01T08:00:00.000+00:00","issued":"2025-07-01T08:00:00.000+00:00","valueQuantity":{"value":25,"unit":"mmol/L","system":"http://unitsofmeasure.org","code":"mg/dL"}},"request":{"method":"PUT","url":"Observation/5c1ac610-f4d3-4b97-8e6e-5a3cd78893d5"}},{"fullUrl":"https://madie.cms.gov/Observation/5b55f71ab84846558c53bc0b","resource":{"resourceType":"Observation","id":"9da3847b-b537-4013-8659-e22a29daa9f4","meta":{"profile":["http://hl7.org/fhir/us/core/StructureDefinition/us-core-observation-lab"]},"status":"final","category":[{"coding":[{"system":"http://terminology.hl7.org/CodeSystem/observation-category","code":"laboratory","display":"laboratory","userSelected":true}]}],"code":{"coding":[{"system":"http://loinc.org","version":"2.69","code":"14682-9","display":"Creatinine [Moles/volume] in Serum or Plasma","userSelected":true}]},"subject":{"reference":"Patient/569ebc6b-4bc4-4b1e-9e40-c3942190d446"},"issued":"2025-07-01T10:00:00.000+00:00","valueQuantity":{"value":2,"unit":"mg/dL","system":"http://unitsofmeasure.org","code":"mg/dL"}},"request":{"method":"PUT","url":"Observation/9da3847b-b537-4013-8659-e22a29daa9f4"}},{"fullUrl":"https://madie.cms.gov/Observation/5e064efa9350f90000fe247c","resource":{"resourceType":"Observation","id":"e4fb67a4-7085-46c2-a7f9-a1ff605c36aa","meta":{"profile":["http://hl7.org/fhir/us/core/StructureDefinition/us-core-observation-lab"]},"status":"final","category":[{"coding":[{"system":"http://terminology.hl7.org/CodeSystem/observation-category","code":"laboratory","display":"Laboratory","userSelected":true}]}],"code":{"coding":[{"system":"http://loinc.org","code":"20570-8","display":"Hematocrit [Volume Fraction] of Blood"}]},"subject":{"reference":"Patient/569ebc6b-4bc4-4b1e-9e40-c3942190d446"},"effectiveDateTime":"2025-07-02T07:15:00.000+00:00","issued":"2025-07-02T07:15:00.000+00:00","valueQuantity":{"value":50,"unit":"%","system":"http://unitsofmeasure.org","code":"%"}},"request":{"method":"PUT","url":"Observation/e4fb67a4-7085-46c2-a7f9-a1ff605c36aa"}},{"fullUrl":"https://madie.cms.gov/Observation/5b55f69ab84846558c53bb73","resource":{"resourceType":"Observation","id":"e343bfa9-03fd-4acb-8d52-2bdc0e930aa2","meta":{"profile":["http://hl7.org/fhir/us/core/StructureDefinition/us-core-observation-lab"]},"status":"final","category":[{"coding":[{"system":"http://terminology.hl7.org/CodeSystem/observation-category","code":"laboratory","display":"Laboratory","userSelected":true}]}],"code":{"coding":[{"system":"http://loinc.org","code":"26464-8","display":"Leukocytes [#/volume] in Blood"}]},"subject":{"reference":"Patient/569ebc6b-4bc4-4b1e-9e40-c3942190d446"},"issued":"2025-07-03T07:15:00.000+00:00","valueQuantity":{"value":5000,"unit":"uL","system":"http://unitsofmeasure.org","code":"uL"}},"request":{"method":"PUT","url":"Observation/e343bfa9-03fd-4acb-8d52-2bdc0e930aa2"}},{"fullUrl":"https://madie.cms.gov/Observation/5b5f8c6eb848461e71030b29","resource":{"resourceType":"Observation","id":"c6a7a9ef-3895-4f01-8331-ee4f0f1bdc1a","meta":{"profile":["http://hl7.org/fhir/us/core/StructureDefinition/us-core-observation-lab"]},"status":"final","category":[{"coding":[{"system":"http://terminology.hl7.org/CodeSystem/observation-category","code":"laboratory","display":"Laboratory","userSelected":true}]}],"code":{"coding":[{"system":"http://loinc.org","code":"13056-7","display":"Platelets [#/volume] in Plasma by Automated count"}]},"subject":{"reference":"Patient/569ebc6b-4bc4-4b1e-9e40-c3942190d446"},"effectiveDateTime":"2025-07-03T07:15:00.000+00:00","issued":"2025-07-03T07:15:00.000+00:00","valueQuantity":{"value":150000,"unit":"/uL","system":"http://unitsofmeasure.org","code":"/uL"}},"request":{"method":"PUT","url":"Observation/c6a7a9ef-3895-4f01-8331-ee4f0f1bdc1a"}},{"fullUrl":"https://madie.cms.gov/Observation/5b7c55d2b84846299c81a578","resource":{"resourceType":"Observation","id":"38255483-9af2-4bf6-ab84-544ce11b635b","meta":{"profile":["http://hl7.org/fhir/us/core/StructureDefinition/us-core-observation-lab"]},"status":"final","category":[{"coding":[{"system":"http://terminology.hl7.org/CodeSystem/observation-category","code":"laboratory","display":"laboratory","userSelected":true}]}],"code":{"coding":[{"system":"http://loinc.org","code":"2947-0","display":"Sodium [Moles/volume] in Blood"}]},"subject":{"reference":"Patient/569ebc6b-4bc4-4b1e-9e40-c3942190d446"},"effectiveDateTime":"2024-07-03T07:15:00.000+00:00","issued":"2025-07-03T07:15:00.000+00:00","valueQuantity":{"value":5.0,"unit":"meq/L","system":"http://unitsofmeasure.org","code":"meq/L"}},"request":{"method":"PUT","url":"Observation/38255483-9af2-4bf6-ab84-544ce11b635b"}},{"fullUrl":"https://madie.cms.gov/Coverage/5f996b1dc8c7dc0000c7b884","resource":{"resourceType":"Coverage","id":"f302ff79-4f20-4dd1-8f38-20d7563f60a3","meta":{"profile":["http://hl7.org/fhir/us/qicore/StructureDefinition/qicore-coverage"]},"status":"active","type":{"coding":[{"system":"https://nahdo.org/sopt","version":"9.2","code":"1","display":"MEDICARE","userSelected":true}]},"beneficiary":{"reference":"Patient/569ebc6b-4bc4-4b1e-9e40-c3942190d446"},"period":{"start":"2025-01-01T00:00:00+00:00"},"payor":[{"reference":"Organization/42846cc3-1db0-4bf7-b9ff-8b81fa6e835d"}]},"request":{"method":"PUT","url":"Coverage/f302ff79-4f20-4dd1-8f38-20d7563f60a3"}},{"fullUrl":"https://madie.cms.gov/Organization/123456","resource":{"resourceType":"Organization","id":"42846cc3-1db0-4bf7-b9ff-8b81fa6e835d","meta":{"profile":["http://hl7.org/fhir/us/qicore/StructureDefinition/qicore-organization"]},"identifier":[{"use":"temp","system":"urn:oid:2.16.840.1.113883.4.4","value":"21-3259825"}],"active":true,"type":[{"coding":[{"system":"http://terminology.hl7.org/CodeSystem/organization-type","code":"pay","display":"Payer"}]}],"name":"Blue Cross Blue Shield of Texas","telecom":[{"system":"phone","value":"(+1) 972-766-6900"}],"address":[{"use":"billing","type":"postal","line":["P.O. Box 660044"],"city":"Dallas","state":"TX","postalCode":"75266-0044","country":"USA"}]},"request":{"method":"PUT","url":"Organization/42846cc3-1db0-4bf7-b9ff-8b81fa6e835d"}},{"fullUrl":"https://madie.cms.gov/Practitioner/practitioner-123456","resource":{"resourceType":"Practitioner","id":"94acb064-4d84-4d0a-84fe-71f11aee4005","meta":{"profile":["http://hl7.org/fhir/us/qicore/StructureDefinition/qicore-practitioner"]},"identifier":[{"system":"http://hl7.org/fhir/sid/us-npi","value":"123456"}],"name":[{"family":"Evil","prefix":["Dr"]}]},"request":{"method":"PUT","url":"Practitioner/94acb064-4d84-4d0a-84fe-71f11aee4005"}},{"fullUrl":"https://madie.cms.gov/MeasureReport/55e0bb0a-978f-414d-8ea0-b04a5eea6cb8","resource":{"resourceType":"MeasureReport","id":"55e0bb0a-978f-414d-8ea0-b04a5eea6cb8","meta":{"profile":["http://hl7.org/fhir/us/cqfmeasures/StructureDefinition/test-case-cqfm"]},"contained":[{"resourceType":"Parameters","id":"c7528048-fc74-42fe-9821-60be227c13d7-parameters","parameter":[{"name":"subject","valueString":"569ebc6b-4bc4-4b1e-9e40-c3942190d446"}]}],"extension":[{"url":"http://hl7.org/fhir/us/cqfmeasures/StructureDefinition/cqfm-inputParameters","valueReference":{"reference":"#c7528048-fc74-42fe-9821-60be227c13d7-parameters"}},{"url":"http://hl7.org/fhir/us/cqfmeasures/StructureDefinition/cqfm-testCaseDescription","valueMarkdown":"Patient has Medicare and is age 65 start of Observation enc: bicarbonate lab performed at start of Obs enc; creatinine @ 2 hrs after start;  Inpatient enc: hematocrit @ admission; WBC, platelets, and sodium 24 hrs after admit; "}],"modifierExtension":[{"url":"http://hl7.org/fhir/us/cqfmeasures/StructureDefinition/cqfm-isTestCase","valueBoolean":true}],"status":"complete","type":"individual","measure":"https://madie.cms.gov/Measure/HybridHospitalWideMortalityFHIR","period":{"start":"2025-01-01","end":"2025-12-31"},"group":[{"population":[{"code":{"coding":[{"system":"http://terminology.hl7.org/CodeSystem/measure-population","code":"initial-population","display":"Initial Population"}]},"count":1}]}]},"request":{"method":"PUT","url":"MeasureReport/55e0bb0a-978f-414d-8ea0-b04a5eea6cb8"}}]}