{"resourceType":"Bundle","id":"tests-35bfcfd8-c661-4b4b-8a57-6df87f97da37-bundle","type":"transaction","entry":[{"fullUrl":"https://madie.cms.gov/Patient/35bfcfd8-c661-4b4b-8a57-6df87f97da37","resource":{"resourceType":"Patient","id":"35bfcfd8-c661-4b4b-8a57-6df87f97da37","meta":{"profile":["http://hl7.org/fhir/us/qicore/StructureDefinition/qicore-patient"]},"text":{"status":"generated","div":"<div xmlns=\"http://www.w3.org/1999/xhtml\"><div class=\"hapiHeaderText\">PlateletRRHR <b>COMBO1 </b></div><table class=\"hapiPropertyTable\"><tbody><tr><td>Identifier</td><td>3fdea26b1d172050afffe1c0ff7bd899faa0bd0df7d367f433ae26111f27549c</td></tr><tr><td>Date of birth</td><td><span>15 June 1956</span></td></tr></tbody></table></div>"},"extension":[{"url":"http://hl7.org/fhir/us/core/StructureDefinition/us-core-race","extension":[{"url":"ombCategory","valueCoding":{"system":"urn:oid:2.16.840.1.113883.6.238","code":"1002-5","display":"American Indian or Alaska Native","userSelected":true}},{"url":"text","valueString":"American Indian or Alaska Native"}]},{"url":"http://hl7.org/fhir/us/core/StructureDefinition/us-core-ethnicity","extension":[{"url":"ombCategory","valueCoding":{"system":"urn:oid:2.16.840.1.113883.6.238","code":"2186-5","display":"Not Hispanic or Latino","userSelected":true}},{"url":"text","valueString":"Not Hispanic or Latino"}]}],"identifier":[{"type":{"coding":[{"system":"http://terminology.hl7.org/CodeSystem/v2-0203","code":"MR"}]},"system":"https://bonnie-fhir.healthit.gov/","value":"63ec0965ccb3770120fe9ab4"}],"active":true,"name":[{"use":"usual","family":"PlateletsHeartRateSystolicBPPass","given":["OneMinuteAfterAdmission"]}],"gender":"male","birthDate":"1956-06-15"},"request":{"method":"PUT","url":"Patient/35bfcfd8-c661-4b4b-8a57-6df87f97da37"}},{"fullUrl":"https://madie.cms.gov/Encounter/5e06503a9350f90000fe25a8","resource":{"resourceType":"Encounter","id":"2c881d9e-7d8e-4352-bfa4-0de9f25ca1d1","meta":{"profile":["http://hl7.org/fhir/us/qicore/StructureDefinition/qicore-encounter"]},"status":"finished","class":{"system":"http://terminology.hl7.org/CodeSystem/v3-ActCode","code":"NONAC","display":"nonacute encounter","userSelected":true},"type":[{"coding":[{"system":"http://snomed.info/sct","code":"183452005","display":"Emergency hospital admission (procedure)"}]}],"subject":{"reference":"Patient/35bfcfd8-c661-4b4b-8a57-6df87f97da37"},"period":{"start":"2025-07-01T08:00:00.000+00:00","end":"2025-07-03T08:15:00.000+00:00"},"length":{"value":3,"unit":"days"}},"request":{"method":"PUT","url":"Encounter/2c881d9e-7d8e-4352-bfa4-0de9f25ca1d1"}},{"fullUrl":"https://madie.cms.gov/Coverage/5f996975b977ef0000c02e1a","resource":{"resourceType":"Coverage","id":"a5085d8e-a7e9-41e3-9ae0-cf1cd88e98c7","meta":{"profile":["http://hl7.org/fhir/us/qicore/StructureDefinition/qicore-coverage"]},"status":"active","type":{"coding":[{"system":"https://nahdo.org/sopt","version":"1.0.1","code":"1","display":"Medicare payer","userSelected":true}]},"beneficiary":{"reference":"Patient/35bfcfd8-c661-4b4b-8a57-6df87f97da37"},"payor":[{"reference":"Organization/f6075515-d38f-4624-bde8-a1ce20473a69"}]},"request":{"method":"PUT","url":"Coverage/a5085d8e-a7e9-41e3-9ae0-cf1cd88e98c7"}},{"fullUrl":"https://madie.cms.gov/Observation/5b5f8c6eb848461e71030b29","resource":{"resourceType":"Observation","id":"26a0b9f2-6fd2-4055-842d-3ec26161e9c4","meta":{"profile":["http://hl7.org/fhir/us/core/StructureDefinition/us-core-observation-lab"]},"status":"final","category":[{"coding":[{"system":"http://terminology.hl7.org/CodeSystem/observation-category","code":"laboratory","display":"Laboratory","userSelected":true}]}],"code":{"coding":[{"system":"http://loinc.org","code":"13056-7","display":"Platelets [#/volume] in Plasma by Automated count"}]},"subject":{"reference":"Patient/35bfcfd8-c661-4b4b-8a57-6df87f97da37"},"effectiveDateTime":"2025-07-01T08:01:00.000+00:00","issued":"2025-07-01T08:01:01.000+00:00","valueQuantity":{"value":200000,"unit":"uL","system":"http://unitsofmeasure.org","code":"uL"}},"request":{"method":"PUT","url":"Observation/26a0b9f2-6fd2-4055-842d-3ec26161e9c4"}},{"fullUrl":"https://madie.cms.gov/Observation/5fd115cd7750e50000950b46","resource":{"resourceType":"Observation","id":"3635d5f7-f3f5-4001-ba99-a2980d409e31","meta":{"profile":["http://hl7.org/fhir/StructureDefinition/heartrate"]},"status":"amended","category":[{"coding":[{"system":"http://terminology.hl7.org/CodeSystem/observation-category","code":"vital-signs","display":"Vital Signs","userSelected":true}]}],"code":{"coding":[{"system":"http://loinc.org","code":"8867-4","display":"Heart rate"}]},"subject":{"reference":"Patient/35bfcfd8-c661-4b4b-8a57-6df87f97da37"},"effectiveDateTime":"2025-07-01T08:01:00.000+00:00","issued":"2025-07-01T08:01:00.000+00:00","valueQuantity":{"value":100,"unit":"/min","system":"http://unitsofmeasure.org","code":"/min"}},"request":{"method":"PUT","url":"Observation/3635d5f7-f3f5-4001-ba99-a2980d409e31"}},{"fullUrl":"https://madie.cms.gov/Observation/5fd116437750e50000950ba8","resource":{"resourceType":"Observation","id":"d52e6081-673c-4c5e-9e69-7f0666e978d7","meta":{"profile":["http://hl7.org/fhir/StructureDefinition/bp"]},"status":"final","category":[{"coding":[{"system":"http://terminology.hl7.org/CodeSystem/observation-category","code":"vital-signs","display":"Vital Signs"}],"text":"Vital Signs"}],"code":{"coding":[{"system":"http://loinc.org","code":"85354-9","display":"Blood pressure panel"}]},"subject":{"reference":"Patient/35bfcfd8-c661-4b4b-8a57-6df87f97da37"},"effectiveDateTime":"2025-07-01T08:01:00.000+00:00","component":[{"code":{"coding":[{"system":"http://loinc.org","code":"8480-6","display":"Systolic blood pressure"}]},"valueQuantity":{"value":131,"unit":"mmHg","system":"http://unitsofmeasure.org","code":"mm[Hg]"}},{"code":{"coding":[{"system":"http://loinc.org","code":"8462-4","display":"Diastolic blood pressure"}]},"valueQuantity":{"value":80,"unit":"mmHg","system":"http://unitsofmeasure.org","code":"mm[Hg]"}}]},"request":{"method":"PUT","url":"Observation/d52e6081-673c-4c5e-9e69-7f0666e978d7"}},{"fullUrl":"https://madie.cms.gov/Organization/123456","resource":{"resourceType":"Organization","id":"f6075515-d38f-4624-bde8-a1ce20473a69","meta":{"profile":["http://hl7.org/fhir/us/qicore/StructureDefinition/qicore-organization"]},"identifier":[{"use":"temp","system":"urn:oid:2.16.840.1.113883.4.4","value":"21-3259825"}],"active":true,"type":[{"coding":[{"system":"http://terminology.hl7.org/CodeSystem/organization-type","code":"pay","display":"Payer"}]}],"name":"Blue Cross Blue Shield of Texas","telecom":[{"system":"phone","value":"(+1) 972-766-6900"}],"address":[{"use":"billing","type":"postal","line":["P.O. Box 660044"],"city":"Dallas","state":"TX","postalCode":"75266-0044","country":"USA"}]},"request":{"method":"PUT","url":"Organization/f6075515-d38f-4624-bde8-a1ce20473a69"}},{"fullUrl":"https://madie.cms.gov/Practitioner/practitioner-123456","resource":{"resourceType":"Practitioner","id":"b7d5ac80-fb2e-4147-8dac-b781703317d6","meta":{"profile":["http://hl7.org/fhir/us/qicore/StructureDefinition/qicore-practitioner"]},"identifier":[{"system":"http://hl7.org/fhir/sid/us-npi","value":"123456"}],"name":[{"family":"Evil","prefix":["Dr"]}]},"request":{"method":"PUT","url":"Practitioner/b7d5ac80-fb2e-4147-8dac-b781703317d6"}},{"fullUrl":"https://madie.cms.gov/MeasureReport/f2730b72-5d76-498e-81cc-3d979fd3e004","resource":{"resourceType":"MeasureReport","id":"f2730b72-5d76-498e-81cc-3d979fd3e004","meta":{"profile":["http://hl7.org/fhir/us/cqfmeasures/StructureDefinition/test-case-cqfm"]},"contained":[{"resourceType":"Parameters","id":"e2b30ace-0731-49f5-af37-b07dc892e65d-parameters","parameter":[{"name":"subject","valueString":"35bfcfd8-c661-4b4b-8a57-6df87f97da37"}]}],"extension":[{"url":"http://hl7.org/fhir/us/cqfmeasures/StructureDefinition/cqfm-inputParameters","valueReference":{"reference":"#e2b30ace-0731-49f5-af37-b07dc892e65d-parameters"}},{"url":"http://hl7.org/fhir/us/cqfmeasures/StructureDefinition/cqfm-testCaseDescription","valueMarkdown":"Enc first day of MP (7/1), lab and exams occurred 1 minute after admission"}],"modifierExtension":[{"url":"http://hl7.org/fhir/us/cqfmeasures/StructureDefinition/cqfm-isTestCase","valueBoolean":true}],"status":"complete","type":"individual","measure":"https://madie.cms.gov/Measure/HybridHospitalWideMortalityFHIR","period":{"start":"2025-01-01","end":"2025-12-31"},"group":[{"population":[{"code":{"coding":[{"system":"http://terminology.hl7.org/CodeSystem/measure-population","code":"initial-population","display":"Initial Population"}]},"count":1}]}]},"request":{"method":"PUT","url":"MeasureReport/f2730b72-5d76-498e-81cc-3d979fd3e004"}}]}