{"resourceType":"Bundle","id":"tests-69c40e81-479f-44cb-a2dd-ff3bbc9a8923-bundle","type":"transaction","entry":[{"fullUrl":"https://madie.cms.gov/Patient/69c40e81-479f-44cb-a2dd-ff3bbc9a8923","resource":{"resourceType":"Patient","id":"69c40e81-479f-44cb-a2dd-ff3bbc9a8923","meta":{"profile":["http://hl7.org/fhir/us/qicore/StructureDefinition/qicore-patient"]},"text":{"status":"generated","div":"<div xmlns=\"http://www.w3.org/1999/xhtml\"><div class=\"hapiHeaderText\">GT94Yrs <b>IPFAIL </b></div><table class=\"hapiPropertyTable\"><tbody><tr><td>Identifier</td><td>3e2cc83e5e4f5654bc788ad95fe65be8e90e99da3635326149b0cf67c8c316a9</td></tr><tr><td>Date of birth</td><td><span>21 June 1926</span></td></tr></tbody></table></div>"},"extension":[{"url":"http://hl7.org/fhir/us/core/StructureDefinition/us-core-race","extension":[{"url":"ombCategory","valueCoding":{"system":"urn:oid:2.16.840.1.113883.6.238","code":"1002-5","display":"American Indian or Alaska Native","userSelected":true}},{"url":"text","valueString":"American Indian or Alaska Native"}]},{"url":"http://hl7.org/fhir/us/core/StructureDefinition/us-core-ethnicity","extension":[{"url":"ombCategory","valueCoding":{"system":"urn:oid:2.16.840.1.113883.6.238","code":"2186-5","display":"Not Hispanic or Latino","userSelected":true}},{"url":"text","valueString":"Not Hispanic or Latino"}]}],"identifier":[{"type":{"coding":[{"system":"http://terminology.hl7.org/CodeSystem/v2-0203","code":"MR"}]},"system":"https://bonnie-fhir.healthit.gov/","value":"63ec0969ccb3770120fe9f0b"}],"active":true,"name":[{"use":"usual","family":"IPPass","given":["Age94DayOfEncounter"]}],"gender":"male","birthDate":"1931-07-01"},"request":{"method":"PUT","url":"Patient/69c40e81-479f-44cb-a2dd-ff3bbc9a8923"}},{"fullUrl":"https://madie.cms.gov/Encounter/5e3b30a5c043460000d12b32","resource":{"resourceType":"Encounter","id":"1e9985e3-bca7-41e3-b374-383447873ec6","meta":{"profile":["http://hl7.org/fhir/us/qicore/StructureDefinition/qicore-encounter"]},"status":"finished","class":{"system":"http://terminology.hl7.org/CodeSystem/v3-ActCode","code":"IMP","display":"inpatient encounter","userSelected":true},"type":[{"coding":[{"system":"http://snomed.info/sct","code":"183452005"}]}],"subject":{"reference":"Patient/69c40e81-479f-44cb-a2dd-ff3bbc9a8923"},"period":{"start":"2025-07-01T08:00:00.000+00:00","end":"2025-07-03T08:15:00.000+00:00"},"length":{"value":2.0,"unit":"days"}},"request":{"method":"PUT","url":"Encounter/1e9985e3-bca7-41e3-b374-383447873ec6"}},{"fullUrl":"https://madie.cms.gov/Coverage/5f996b62f654cc0000fe37fb","resource":{"resourceType":"Coverage","id":"77238689-e89e-49e7-80d9-b1040d7b4e9a","meta":{"profile":["http://hl7.org/fhir/us/qicore/StructureDefinition/qicore-coverage"]},"status":"active","type":{"coding":[{"system":"https://nahdo.org/sopt","version":"1.0.1","code":"1","display":"Medicare payer","userSelected":true}]},"beneficiary":{"reference":"Patient/69c40e81-479f-44cb-a2dd-ff3bbc9a8923"},"payor":[{"reference":"Organization/4b5a882f-1f43-485c-85c6-f5ad2337d5b1"}]},"request":{"method":"PUT","url":"Coverage/77238689-e89e-49e7-80d9-b1040d7b4e9a"}},{"fullUrl":"https://madie.cms.gov/Organization/123456","resource":{"resourceType":"Organization","id":"4b5a882f-1f43-485c-85c6-f5ad2337d5b1","meta":{"profile":["http://hl7.org/fhir/us/qicore/StructureDefinition/qicore-organization"]},"identifier":[{"use":"temp","system":"urn:oid:2.16.840.1.113883.4.4","value":"21-3259825"}],"active":true,"type":[{"coding":[{"system":"http://terminology.hl7.org/CodeSystem/organization-type","code":"pay","display":"Payer"}]}],"name":"Blue Cross Blue Shield of Texas","telecom":[{"system":"phone","value":"(+1) 972-766-6900"}],"address":[{"use":"billing","type":"postal","line":["P.O. Box 660044"],"city":"Dallas","state":"TX","postalCode":"75266-0044","country":"USA"}]},"request":{"method":"PUT","url":"Organization/4b5a882f-1f43-485c-85c6-f5ad2337d5b1"}},{"fullUrl":"https://madie.cms.gov/Practitioner/practitioner-123456","resource":{"resourceType":"Practitioner","id":"5bda3aa6-4ff9-4805-ad7a-349ab3141a33","meta":{"profile":["http://hl7.org/fhir/us/qicore/StructureDefinition/qicore-practitioner"]},"identifier":[{"system":"http://hl7.org/fhir/sid/us-npi","value":"123456"}],"name":[{"family":"Evil","prefix":["Dr"]}]},"request":{"method":"PUT","url":"Practitioner/5bda3aa6-4ff9-4805-ad7a-349ab3141a33"}},{"fullUrl":"https://madie.cms.gov/MeasureReport/b4318b47-398c-4cf3-b457-f3380850e4fc","resource":{"resourceType":"MeasureReport","id":"b4318b47-398c-4cf3-b457-f3380850e4fc","meta":{"profile":["http://hl7.org/fhir/us/cqfmeasures/StructureDefinition/test-case-cqfm"]},"contained":[{"resourceType":"Parameters","id":"99f3e287-3cbe-4e23-96d2-4157668138f1-parameters","parameter":[{"name":"subject","valueString":"69c40e81-479f-44cb-a2dd-ff3bbc9a8923"}]}],"extension":[{"url":"http://hl7.org/fhir/us/cqfmeasures/StructureDefinition/cqfm-inputParameters","valueReference":{"reference":"#99f3e287-3cbe-4e23-96d2-4157668138f1-parameters"}},{"url":"http://hl7.org/fhir/us/cqfmeasures/StructureDefinition/cqfm-testCaseDescription","valueMarkdown":"Encounter first day of MP (7/1), patient turned 94 this day and has Medicare."}],"modifierExtension":[{"url":"http://hl7.org/fhir/us/cqfmeasures/StructureDefinition/cqfm-isTestCase","valueBoolean":true}],"status":"complete","type":"individual","measure":"https://madie.cms.gov/Measure/HybridHospitalWideMortalityFHIR","period":{"start":"2025-01-01","end":"2025-12-31"},"group":[{"population":[{"code":{"coding":[{"system":"http://terminology.hl7.org/CodeSystem/measure-population","code":"initial-population","display":"Initial Population"}]},"count":1}]}]},"request":{"method":"PUT","url":"MeasureReport/b4318b47-398c-4cf3-b457-f3380850e4fc"}}]}