{"resourceType":"Bundle","id":"tests-8007ca87-67d4-4bbb-865c-392aa442bcf9-bundle","type":"transaction","entry":[{"fullUrl":"https://madie.cms.gov/Patient/8007ca87-67d4-4bbb-865c-392aa442bcf9","resource":{"resourceType":"Patient","id":"8007ca87-67d4-4bbb-865c-392aa442bcf9","meta":{"profile":["http://hl7.org/fhir/us/qicore/StructureDefinition/qicore-patient"]},"extension":[{"url":"http://hl7.org/fhir/us/core/StructureDefinition/us-core-race","extension":[{"url":"ombCategory","valueCoding":{"system":"urn:oid:2.16.840.1.113883.6.238","code":"1002-5","display":"American Indian or Alaska Native","userSelected":true}},{"url":"text","valueString":"American Indian or Alaska Native"}]},{"url":"http://hl7.org/fhir/us/core/StructureDefinition/us-core-ethnicity","extension":[{"url":"ombCategory","valueCoding":{"system":"urn:oid:2.16.840.1.113883.6.238","code":"2135-2","display":"Hispanic or Latino","userSelected":true}},{"url":"text","valueString":"Hispanic or Latino"}]}],"identifier":[{"type":{"coding":[{"system":"http://terminology.hl7.org/CodeSystem/v2-0203","code":"MR"}]},"system":"https://bonnie-fhir.healthit.gov/","value":"62f65aa75efef5272905e706"}],"name":[{"family":"DENEXCEPFail","given":["AdultPtReasonForNoDepScreenandDepScreenAWeekAgo"]}],"gender":"male","birthDate":"2007-01-01"},"request":{"method":"PUT","url":"Patient/8007ca87-67d4-4bbb-865c-392aa442bcf9"}},{"fullUrl":"https://madie.cms.gov/Encounter/encounter-to-screen-for-depression-d709","resource":{"resourceType":"Encounter","id":"6a34bf93-04e6-429d-a325-df385f2e12bf","meta":{"profile":["http://hl7.org/fhir/us/qicore/StructureDefinition/qicore-encounter"]},"status":"finished","class":{"system":"http://terminology.hl7.org/CodeSystem/v3-ActCode","code":"AMB","display":"ambulatory"},"type":[{"coding":[{"system":"http://snomed.info/sct","version":"2021-09","code":"10197000","display":"Psychiatric interview and evaluation (procedure)","userSelected":true}]}],"subject":{"reference":"Patient/8007ca87-67d4-4bbb-865c-392aa442bcf9"},"period":{"start":"2025-06-28T08:00:00.000+00:00","end":"2025-06-28T08:15:00.000+00:00"}},"request":{"method":"PUT","url":"Encounter/6a34bf93-04e6-429d-a325-df385f2e12bf"}},{"fullUrl":"https://madie.cms.gov/Observation/adult-depression-screening-assessment-d70a","resource":{"resourceType":"Observation","id":"58b47a3e-1f84-4090-bd5f-5a370c2dc8ad","meta":{"profile":["http://hl7.org/fhir/us/qicore/StructureDefinition/qicore-observationnotdone"]},"extension":[{"url":"http://hl7.org/fhir/us/qicore/StructureDefinition/qicore-notDoneReason","valueCodeableConcept":{"coding":[{"system":"http://snomed.info/sct","code":"720834000","display":"Depression screening declined (situation)","userSelected":true}]}}],"status":"cancelled","category":[{"coding":[{"system":"http://terminology.hl7.org/CodeSystem/observation-category","code":"procedure","display":"Procedure"}]}],"code":{"coding":[{"system":"http://loinc.org","code":"73832-8","display":"Adult depression screening assessment","userSelected":true}]},"subject":{"reference":"Patient/8007ca87-67d4-4bbb-865c-392aa442bcf9"},"issued":"2025-06-28T08:00:00.000+00:00","valueBoolean":true},"request":{"method":"PUT","url":"Observation/58b47a3e-1f84-4090-bd5f-5a370c2dc8ad"}},{"fullUrl":"https://madie.cms.gov/Observation/adult-depression-screening-assessment-e707","resource":{"resourceType":"Observation","id":"76bbb7ba-89b8-47f7-ba31-a38fb5b097d9","meta":{"profile":["http://hl7.org/fhir/us/qicore/StructureDefinition/qicore-observation"]},"status":"final","category":[{"coding":[{"system":"http://terminology.hl7.org/CodeSystem/observation-category","code":"procedure","display":"Procedure"}]}],"code":{"coding":[{"system":"http://loinc.org","code":"73832-8","display":"Adult depression screening assessment","userSelected":true}]},"subject":{"reference":"Patient/8007ca87-67d4-4bbb-865c-392aa442bcf9"},"effectiveDateTime":"2025-06-21T08:00:00.000+00:00","issued":"2025-06-20T08:00:00.000+00:00","valueBoolean":true},"request":{"method":"PUT","url":"Observation/76bbb7ba-89b8-47f7-ba31-a38fb5b097d9"}},{"fullUrl":"https://madie.cms.gov/Coverage/1","resource":{"resourceType":"Coverage","id":"8f510b06-a97b-4061-9eef-50ade692f299","meta":{"profile":["http://hl7.org/fhir/us/qicore/StructureDefinition/qicore-coverage"]},"status":"active","beneficiary":{"reference":"Patient/8007ca87-67d4-4bbb-865c-392aa442bcf9"},"payor":[{"reference":"Organization/80573fa1-cf83-4e9a-8f21-86a018689678"}]},"request":{"method":"PUT","url":"Coverage/8f510b06-a97b-4061-9eef-50ade692f299"}},{"fullUrl":"https://madie.cms.gov/Organization/123456","resource":{"resourceType":"Organization","id":"80573fa1-cf83-4e9a-8f21-86a018689678","meta":{"profile":["http://hl7.org/fhir/us/qicore/StructureDefinition/qicore-organization"]},"identifier":[{"use":"temp","system":"urn:oid:2.16.840.1.113883.4.4","value":"21-3259825"}],"active":true,"type":[{"coding":[{"system":"http://terminology.hl7.org/CodeSystem/organization-type","code":"pay","display":"Payer"}]}],"name":"Blue Cross Blue Shield of Texas","telecom":[{"system":"phone","value":"(+1) 972-766-6900"}],"address":[{"use":"billing","type":"postal","line":["P.O. Box 660044"],"city":"Dallas","state":"TX","postalCode":"75266-0044","country":"USA"}]},"request":{"method":"PUT","url":"Organization/80573fa1-cf83-4e9a-8f21-86a018689678"}},{"fullUrl":"https://madie.cms.gov/Practitioner/practitioner-123456","resource":{"resourceType":"Practitioner","id":"07b9fd0d-f064-441f-b989-b4da45dc9f69","meta":{"profile":["http://hl7.org/fhir/us/qicore/StructureDefinition/qicore-practitioner"]},"identifier":[{"system":"http://hl7.org/fhir/sid/us-npi","value":"123456"}],"name":[{"family":"Evil","prefix":["Dr"]}]},"request":{"method":"PUT","url":"Practitioner/07b9fd0d-f064-441f-b989-b4da45dc9f69"}},{"fullUrl":"https://madie.cms.gov/MeasureReport/3f6f6468-81d7-4f79-a45c-88fb063b7668","resource":{"resourceType":"MeasureReport","id":"3f6f6468-81d7-4f79-a45c-88fb063b7668","meta":{"profile":["http://hl7.org/fhir/us/cqfmeasures/StructureDefinition/test-case-cqfm"]},"contained":[{"resourceType":"Parameters","id":"cd4f87c6-48b7-4bd7-a4cc-4152e4fdd8c3-parameters","parameter":[{"name":"subject","valueString":"8007ca87-67d4-4bbb-865c-392aa442bcf9"}]}],"extension":[{"url":"http://hl7.org/fhir/us/cqfmeasures/StructureDefinition/cqfm-inputParameters","valueReference":{"reference":"#cd4f87c6-48b7-4bd7-a4cc-4152e4fdd8c3-parameters"}},{"url":"http://hl7.org/fhir/us/cqfmeasures/StructureDefinition/cqfm-testCaseDescription","valueMarkdown":"18 yo male with patient reason for not screening for depression and had screening done a week ago."}],"modifierExtension":[{"url":"http://hl7.org/fhir/us/cqfmeasures/StructureDefinition/cqfm-isTestCase","valueBoolean":true}],"status":"complete","type":"individual","measure":"https://madie.cms.gov/Measure/PCSDepressionScreenAndFollowUpFHIR","period":{"start":"2025-01-01","end":"2025-12-31"},"group":[{"population":[{"code":{"coding":[{"system":"http://terminology.hl7.org/CodeSystem/measure-population","code":"initial-population","display":"Initial Population"}]},"count":1},{"code":{"coding":[{"system":"http://terminology.hl7.org/CodeSystem/measure-population","code":"denominator","display":"Denominator"}]},"count":1},{"code":{"coding":[{"system":"http://terminology.hl7.org/CodeSystem/measure-population","code":"denominator-exclusion","display":"Denominator Exclusion"}]},"count":0},{"code":{"coding":[{"system":"http://terminology.hl7.org/CodeSystem/measure-population","code":"numerator","display":"Numerator"}]},"count":0},{"code":{"coding":[{"system":"http://terminology.hl7.org/CodeSystem/measure-population","code":"denominator-exception","display":"Denominator Exception"}]},"count":0}]}]},"request":{"method":"PUT","url":"MeasureReport/3f6f6468-81d7-4f79-a45c-88fb063b7668"}}]}