{"resourceType":"Bundle","id":"tests-b51c3f3e-f4b5-41fc-b781-a1a98e25d1b3-bundle","type":"transaction","entry":[{"fullUrl":"https://madie.cms.gov/Patient/b51c3f3e-f4b5-41fc-b781-a1a98e25d1b3","resource":{"resourceType":"Patient","id":"b51c3f3e-f4b5-41fc-b781-a1a98e25d1b3","meta":{"profile":["http://hl7.org/fhir/us/qicore/StructureDefinition/qicore-patient"]},"extension":[{"url":"http://hl7.org/fhir/us/core/StructureDefinition/us-core-race","extension":[{"url":"ombCategory","valueCoding":{"system":"urn:oid:2.16.840.1.113883.6.238","code":"1002-5","display":"American Indian or Alaska Native","userSelected":true}},{"url":"text","valueString":"American Indian or Alaska Native"}]},{"url":"http://hl7.org/fhir/us/core/StructureDefinition/us-core-ethnicity","extension":[{"url":"ombCategory","valueCoding":{"system":"urn:oid:2.16.840.1.113883.6.238","code":"2135-2","display":"Hispanic or Latino","userSelected":true}},{"url":"text","valueString":"Hispanic or Latino"}]}],"identifier":[{"type":{"coding":[{"system":"http://terminology.hl7.org/CodeSystem/v2-0203","code":"MR"}]},"system":"https://bonnie-fhir.healthit.gov/","value":"62b1e0cb3968556e5150cf3a"}],"name":[{"family":"NUMERPass","given":["12yoPosAdolDepScreenandFollowUpPrescription"]}],"gender":"male","birthDate":"2013-01-01"},"request":{"method":"PUT","url":"Patient/b51c3f3e-f4b5-41fc-b781-a1a98e25d1b3"}},{"fullUrl":"https://madie.cms.gov/Encounter/encounter-to-screen-for-depression-cf2d","resource":{"resourceType":"Encounter","id":"ef148f5c-70aa-426d-884d-0b31b686d66f","meta":{"profile":["http://hl7.org/fhir/us/qicore/StructureDefinition/qicore-encounter"]},"status":"finished","class":{"system":"http://terminology.hl7.org/CodeSystem/v3-ActCode","code":"AMB","display":"ambulatory"},"type":[{"coding":[{"system":"http://snomed.info/sct","version":"2021-09","code":"10197000","display":"Psychiatric interview and evaluation (procedure)","userSelected":true}]}],"subject":{"reference":"Patient/b51c3f3e-f4b5-41fc-b781-a1a98e25d1b3"},"period":{"start":"2025-06-21T08:00:00.000+00:00","end":"2025-06-21T08:15:00.000+00:00"}},"request":{"method":"PUT","url":"Encounter/ef148f5c-70aa-426d-884d-0b31b686d66f"}},{"fullUrl":"https://madie.cms.gov/Observation/adolescent-depression-screening-assessment-cf37","resource":{"resourceType":"Observation","id":"1af8e367-3e4d-4640-814f-c40b2f21cd9a","meta":{"profile":["http://hl7.org/fhir/us/qicore/StructureDefinition/qicore-observation"]},"status":"final","category":[{"coding":[{"system":"http://terminology.hl7.org/CodeSystem/observation-category","code":"procedure","display":"Procedure"}]}],"code":{"coding":[{"system":"http://loinc.org","code":"73831-0","display":"Adolescent depression screening assessment","userSelected":true}]},"subject":{"reference":"Patient/b51c3f3e-f4b5-41fc-b781-a1a98e25d1b3"},"effectiveDateTime":"2025-06-15T08:00:00.000+00:00","valueCodeableConcept":{"coding":[{"system":"http://snomed.info/sct","code":"428181000124104","display":"Depression screening positive (finding)","userSelected":true}]}},"request":{"method":"PUT","url":"Observation/1af8e367-3e4d-4640-814f-c40b2f21cd9a"}},{"fullUrl":"https://madie.cms.gov/MedicationRequest/adolescent-depression-medications-cf38","resource":{"resourceType":"MedicationRequest","id":"1151a39b-dd2d-4626-aaaa-faf15868fba6","meta":{"profile":["http://hl7.org/fhir/us/qicore/StructureDefinition/qicore-medicationrequest"]},"status":"active","intent":"order","doNotPerform":false,"medicationCodeableConcept":{"coding":[{"system":"http://www.nlm.nih.gov/research/umls/rxnorm","code":"1190110","display":"fluoxetine 60 MG Oral Tablet","userSelected":true}]},"subject":{"reference":"Patient/b51c3f3e-f4b5-41fc-b781-a1a98e25d1b3"},"authoredOn":"2025-06-21T08:00:00.000+00:00","requester":{"reference":"Practitioner/example"}},"request":{"method":"PUT","url":"MedicationRequest/1151a39b-dd2d-4626-aaaa-faf15868fba6"}},{"fullUrl":"https://madie.cms.gov/Coverage/1","resource":{"resourceType":"Coverage","id":"1bb309d5-5ab1-4650-9e43-22a55ee97c1d","meta":{"profile":["http://hl7.org/fhir/us/qicore/StructureDefinition/qicore-coverage"]},"status":"active","beneficiary":{"reference":"Patient/b51c3f3e-f4b5-41fc-b781-a1a98e25d1b3"},"payor":[{"reference":"Organization/024e2731-b045-43bf-80d2-684774c5b51c"}]},"request":{"method":"PUT","url":"Coverage/1bb309d5-5ab1-4650-9e43-22a55ee97c1d"}},{"fullUrl":"https://madie.cms.gov/Organization/123456","resource":{"resourceType":"Organization","id":"024e2731-b045-43bf-80d2-684774c5b51c","meta":{"profile":["http://hl7.org/fhir/us/qicore/StructureDefinition/qicore-organization"]},"identifier":[{"use":"temp","system":"urn:oid:2.16.840.1.113883.4.4","value":"21-3259825"}],"active":true,"type":[{"coding":[{"system":"http://terminology.hl7.org/CodeSystem/organization-type","code":"pay","display":"Payer"}]}],"name":"Blue Cross Blue Shield of Texas","telecom":[{"system":"phone","value":"(+1) 972-766-6900"}],"address":[{"use":"billing","type":"postal","line":["P.O. Box 660044"],"city":"Dallas","state":"TX","postalCode":"75266-0044","country":"USA"}]},"request":{"method":"PUT","url":"Organization/024e2731-b045-43bf-80d2-684774c5b51c"}},{"fullUrl":"https://madie.cms.gov/Practitioner/practitioner-123456","resource":{"resourceType":"Practitioner","id":"2481611e-0ebf-4740-8f60-9e970c2bd018","meta":{"profile":["http://hl7.org/fhir/us/qicore/StructureDefinition/qicore-practitioner"]},"identifier":[{"system":"http://hl7.org/fhir/sid/us-npi","value":"123456"}],"name":[{"family":"Evil","prefix":["Dr"]}]},"request":{"method":"PUT","url":"Practitioner/2481611e-0ebf-4740-8f60-9e970c2bd018"}},{"fullUrl":"https://madie.cms.gov/MeasureReport/767c94da-5741-488c-8044-1c5a632661c6","resource":{"resourceType":"MeasureReport","id":"767c94da-5741-488c-8044-1c5a632661c6","meta":{"profile":["http://hl7.org/fhir/us/cqfmeasures/StructureDefinition/test-case-cqfm"]},"contained":[{"resourceType":"Parameters","id":"40d9abba-62ef-4a50-9bcf-cb04c6ebd1d0-parameters","parameter":[{"name":"subject","valueString":"b51c3f3e-f4b5-41fc-b781-a1a98e25d1b3"}]}],"extension":[{"url":"http://hl7.org/fhir/us/cqfmeasures/StructureDefinition/cqfm-inputParameters","valueReference":{"reference":"#40d9abba-62ef-4a50-9bcf-cb04c6ebd1d0-parameters"}},{"url":"http://hl7.org/fhir/us/cqfmeasures/StructureDefinition/cqfm-testCaseDescription","valueMarkdown":"12yo with previous positive adolescent depression screening and medication request follow up"}],"modifierExtension":[{"url":"http://hl7.org/fhir/us/cqfmeasures/StructureDefinition/cqfm-isTestCase","valueBoolean":true}],"status":"complete","type":"individual","measure":"https://madie.cms.gov/Measure/PCSDepressionScreenAndFollowUpFHIR","period":{"start":"2025-01-01","end":"2025-12-31"},"group":[{"population":[{"code":{"coding":[{"system":"http://terminology.hl7.org/CodeSystem/measure-population","code":"initial-population","display":"Initial Population"}]},"count":1},{"code":{"coding":[{"system":"http://terminology.hl7.org/CodeSystem/measure-population","code":"denominator","display":"Denominator"}]},"count":1},{"code":{"coding":[{"system":"http://terminology.hl7.org/CodeSystem/measure-population","code":"denominator-exclusion","display":"Denominator Exclusion"}]},"count":0},{"code":{"coding":[{"system":"http://terminology.hl7.org/CodeSystem/measure-population","code":"numerator","display":"Numerator"}]},"count":1},{"code":{"coding":[{"system":"http://terminology.hl7.org/CodeSystem/measure-population","code":"denominator-exception","display":"Denominator Exception"}]},"count":0}]}]},"request":{"method":"PUT","url":"MeasureReport/767c94da-5741-488c-8044-1c5a632661c6"}}]}