{"resourceType":"Bundle","id":"tests-a48139e2-69ab-4b38-9c35-2d76d6810483-bundle","type":"transaction","entry":[{"fullUrl":"https://madie.cms.gov/Patient/a48139e2-69ab-4b38-9c35-2d76d6810483","resource":{"resourceType":"Patient","id":"a48139e2-69ab-4b38-9c35-2d76d6810483","meta":{"profile":["http://hl7.org/fhir/us/qicore/StructureDefinition/qicore-patient"]},"extension":[{"url":"http://hl7.org/fhir/us/core/StructureDefinition/us-core-race","extension":[{"url":"ombCategory","valueCoding":{"system":"urn:oid:2.16.840.1.113883.6.238","code":"1002-5","display":"American Indian or Alaska Native","userSelected":true}},{"url":"text","valueString":"American Indian or Alaska Native"}]},{"url":"http://hl7.org/fhir/us/core/StructureDefinition/us-core-ethnicity","extension":[{"url":"ombCategory","valueCoding":{"system":"urn:oid:2.16.840.1.113883.6.238","code":"2135-2","display":"Hispanic or Latino","userSelected":true}},{"url":"text","valueString":"Hispanic or Latino"}]}],"identifier":[{"type":{"coding":[{"system":"http://terminology.hl7.org/CodeSystem/v2-0203","code":"MR"}]},"system":"https://bonnie-fhir.healthit.gov/","value":"62b1e0883968556e5150cf39"}],"name":[{"family":"NUMERPass","given":["12yoNegativeAdolescentDepressionScreening"]}],"gender":"male","birthDate":"2013-01-01"},"request":{"method":"PUT","url":"Patient/a48139e2-69ab-4b38-9c35-2d76d6810483"}},{"fullUrl":"https://madie.cms.gov/Encounter/encounter-to-screen-for-depression-cf2d","resource":{"resourceType":"Encounter","id":"cab357d7-c2c6-4720-8d7c-fc5d80cda8fc","meta":{"profile":["http://hl7.org/fhir/us/qicore/StructureDefinition/qicore-encounter"]},"status":"finished","class":{"system":"http://terminology.hl7.org/CodeSystem/v3-ActCode","code":"AMB","display":"ambulatory"},"type":[{"coding":[{"system":"http://snomed.info/sct","version":"2021-09","code":"10197000","display":"Psychiatric interview and evaluation (procedure)","userSelected":true}]}],"subject":{"reference":"Patient/a48139e2-69ab-4b38-9c35-2d76d6810483"},"period":{"start":"2025-06-21T08:00:00.000+00:00","end":"2025-06-21T08:15:00.000+00:00"}},"request":{"method":"PUT","url":"Encounter/cab357d7-c2c6-4720-8d7c-fc5d80cda8fc"}},{"fullUrl":"https://madie.cms.gov/Observation/adolescent-depression-screening-assessment-cf34","resource":{"resourceType":"Observation","id":"59b152c4-2d07-4a0e-9d26-9de6ddd93dbb","meta":{"profile":["http://hl7.org/fhir/us/qicore/StructureDefinition/qicore-observation"]},"status":"final","category":[{"coding":[{"system":"http://terminology.hl7.org/CodeSystem/observation-category","code":"procedure","display":"Procedure"}]}],"code":{"coding":[{"system":"http://loinc.org","code":"73831-0","display":"Adolescent depression screening assessment","userSelected":true}]},"subject":{"reference":"Patient/a48139e2-69ab-4b38-9c35-2d76d6810483"},"effectiveDateTime":"2025-06-15T08:00:00.000+00:00","valueCodeableConcept":{"coding":[{"system":"http://snomed.info/sct","code":"428171000124102","display":"Depression screening negative (finding)","userSelected":true}]}},"request":{"method":"PUT","url":"Observation/59b152c4-2d07-4a0e-9d26-9de6ddd93dbb"}},{"fullUrl":"https://madie.cms.gov/MeasureReport/754d90af-f392-473a-8fbe-cee1787e8578","resource":{"resourceType":"MeasureReport","id":"754d90af-f392-473a-8fbe-cee1787e8578","meta":{"profile":["http://hl7.org/fhir/us/cqfmeasures/StructureDefinition/test-case-cqfm"]},"contained":[{"resourceType":"Parameters","id":"9742d954-4508-4b25-843e-2e5178f72856-parameters","parameter":[{"name":"subject","valueString":"a48139e2-69ab-4b38-9c35-2d76d6810483"}]}],"extension":[{"url":"http://hl7.org/fhir/us/cqfmeasures/StructureDefinition/cqfm-inputParameters","valueReference":{"reference":"#9742d954-4508-4b25-843e-2e5178f72856-parameters"}},{"url":"http://hl7.org/fhir/us/cqfmeasures/StructureDefinition/cqfm-testCaseDescription","valueMarkdown":"12yo male with previous negative adolescent depression screening"}],"modifierExtension":[{"url":"http://hl7.org/fhir/us/cqfmeasures/StructureDefinition/cqfm-isTestCase","valueBoolean":true}],"status":"complete","type":"individual","measure":"https://madie.cms.gov/Measure/PCSDepressionScreenAndFollowUpFHIR","period":{"start":"2025-01-01","end":"2025-12-31"},"group":[{"population":[{"code":{"coding":[{"system":"http://terminology.hl7.org/CodeSystem/measure-population","code":"initial-population","display":"Initial Population"}]},"count":1},{"code":{"coding":[{"system":"http://terminology.hl7.org/CodeSystem/measure-population","code":"denominator","display":"Denominator"}]},"count":1},{"code":{"coding":[{"system":"http://terminology.hl7.org/CodeSystem/measure-population","code":"denominator-exclusion","display":"Denominator Exclusion"}]},"count":0},{"code":{"coding":[{"system":"http://terminology.hl7.org/CodeSystem/measure-population","code":"numerator","display":"Numerator"}]},"count":1},{"code":{"coding":[{"system":"http://terminology.hl7.org/CodeSystem/measure-population","code":"denominator-exception","display":"Denominator Exception"}]},"count":0}]}]},"request":{"method":"PUT","url":"MeasureReport/754d90af-f392-473a-8fbe-cee1787e8578"}}]}