{"resourceType":"Bundle","id":"tests-7edec249-d80b-4013-b604-bd04521192f3-bundle","type":"transaction","entry":[{"fullUrl":"https://madie.cms.gov/Patient/7edec249-d80b-4013-b604-bd04521192f3","resource":{"resourceType":"Patient","id":"7edec249-d80b-4013-b604-bd04521192f3","meta":{"profile":["http://hl7.org/fhir/us/qicore/StructureDefinition/qicore-patient"]},"extension":[{"url":"http://hl7.org/fhir/us/core/StructureDefinition/us-core-race","extension":[{"url":"ombCategory","valueCoding":{"system":"urn:oid:2.16.840.1.113883.6.238","code":"1002-5","display":"American Indian or Alaska Native","userSelected":true}},{"url":"text","valueString":"American Indian or Alaska Native"}]},{"url":"http://hl7.org/fhir/us/core/StructureDefinition/us-core-ethnicity","extension":[{"url":"ombCategory","valueCoding":{"system":"urn:oid:2.16.840.1.113883.6.238","code":"2135-2","display":"Hispanic or Latino","userSelected":true}},{"url":"text","valueString":"Hispanic or Latino"}]}],"identifier":[{"type":{"coding":[{"system":"http://terminology.hl7.org/CodeSystem/v2-0203","code":"MR"}]},"system":"https://bonnie-fhir.healthit.gov/","value":"62f660475efef5272905e70d"}],"name":[{"family":"DENEXCEPPass","given":["AdolescentPatientReasonForNoDepressionScreenAge17"]}],"gender":"male","birthDate":"2008-01-01"},"request":{"method":"PUT","url":"Patient/7edec249-d80b-4013-b604-bd04521192f3"}},{"fullUrl":"https://madie.cms.gov/Encounter/encounter-to-screen-for-depression-d709","resource":{"resourceType":"Encounter","id":"e61f9e9f-a220-4eff-a838-02ec8ab0a111","meta":{"profile":["http://hl7.org/fhir/us/qicore/StructureDefinition/qicore-encounter"]},"status":"finished","class":{"system":"http://terminology.hl7.org/CodeSystem/v3-ActCode","code":"AMB","display":"ambulatory"},"type":[{"coding":[{"system":"http://snomed.info/sct","version":"2021-09","code":"10197000","display":"Psychiatric interview and evaluation (procedure)","userSelected":true}]}],"subject":{"reference":"Patient/7edec249-d80b-4013-b604-bd04521192f3"},"period":{"start":"2025-01-01T08:00:00.000+00:00","end":"2025-01-01T08:15:00.000+00:00"}},"request":{"method":"PUT","url":"Encounter/e61f9e9f-a220-4eff-a838-02ec8ab0a111"}},{"fullUrl":"https://madie.cms.gov/Observation/adolescent-depression-screening-assessment-e70c","resource":{"resourceType":"Observation","id":"aa39d24b-abe5-474d-83eb-ef897b737825","meta":{"profile":["http://hl7.org/fhir/us/qicore/StructureDefinition/qicore-observationnotdone"]},"extension":[{"url":"http://hl7.org/fhir/us/qicore/StructureDefinition/qicore-notDoneReason","valueCodeableConcept":{"coding":[{"system":"http://snomed.info/sct","code":"720834000","display":"Depression screening declined (situation)","userSelected":true}]}}],"status":"cancelled","category":[{"coding":[{"system":"http://terminology.hl7.org/CodeSystem/observation-category","code":"procedure","display":"Procedure"}]}],"code":{"coding":[{"system":"http://loinc.org","code":"73831-0","display":"Adolescent depression screening assessment","userSelected":true}]},"subject":{"reference":"Patient/7edec249-d80b-4013-b604-bd04521192f3"},"issued":"2025-01-01T08:01:00.000+00:00","valueBoolean":true},"request":{"method":"PUT","url":"Observation/aa39d24b-abe5-474d-83eb-ef897b737825"}},{"fullUrl":"https://madie.cms.gov/MeasureReport/e3e80c47-63ba-47ae-aa16-01cd95d3b7f8","resource":{"resourceType":"MeasureReport","id":"e3e80c47-63ba-47ae-aa16-01cd95d3b7f8","meta":{"profile":["http://hl7.org/fhir/us/cqfmeasures/StructureDefinition/test-case-cqfm"]},"contained":[{"resourceType":"Parameters","id":"aa16764e-f075-4a37-adb5-6ecc25420730-parameters","parameter":[{"name":"subject","valueString":"7edec249-d80b-4013-b604-bd04521192f3"}]}],"extension":[{"url":"http://hl7.org/fhir/us/cqfmeasures/StructureDefinition/cqfm-inputParameters","valueReference":{"reference":"#aa16764e-f075-4a37-adb5-6ecc25420730-parameters"}},{"url":"http://hl7.org/fhir/us/cqfmeasures/StructureDefinition/cqfm-testCaseDescription","valueMarkdown":"17 yo male with patient reason for not screening for depression - 17 on first day MP."}],"modifierExtension":[{"url":"http://hl7.org/fhir/us/cqfmeasures/StructureDefinition/cqfm-isTestCase","valueBoolean":true}],"status":"complete","type":"individual","measure":"https://madie.cms.gov/Measure/PCSDepressionScreenAndFollowUpFHIR","period":{"start":"2025-01-01","end":"2025-12-31"},"group":[{"population":[{"code":{"coding":[{"system":"http://terminology.hl7.org/CodeSystem/measure-population","code":"initial-population","display":"Initial Population"}]},"count":1},{"code":{"coding":[{"system":"http://terminology.hl7.org/CodeSystem/measure-population","code":"denominator","display":"Denominator"}]},"count":1},{"code":{"coding":[{"system":"http://terminology.hl7.org/CodeSystem/measure-population","code":"denominator-exclusion","display":"Denominator Exclusion"}]},"count":0},{"code":{"coding":[{"system":"http://terminology.hl7.org/CodeSystem/measure-population","code":"numerator","display":"Numerator"}]},"count":0},{"code":{"coding":[{"system":"http://terminology.hl7.org/CodeSystem/measure-population","code":"denominator-exception","display":"Denominator Exception"}]},"count":1}]}]},"request":{"method":"PUT","url":"MeasureReport/e3e80c47-63ba-47ae-aa16-01cd95d3b7f8"}}]}