{"resourceType":"Bundle","id":"tests-5624ca8c-a408-4097-889f-ecb15d2f7f09-bundle","type":"transaction","entry":[{"fullUrl":"https://madie.cms.gov/Patient/5624ca8c-a408-4097-889f-ecb15d2f7f09","resource":{"resourceType":"Patient","id":"5624ca8c-a408-4097-889f-ecb15d2f7f09","meta":{"profile":["http://hl7.org/fhir/us/qicore/StructureDefinition/qicore-patient"]},"extension":[{"url":"http://hl7.org/fhir/us/core/StructureDefinition/us-core-race","extension":[{"url":"ombCategory","valueCoding":{"system":"urn:oid:2.16.840.1.113883.6.238","code":"2028-9","display":"Asian"}},{"url":"text","valueString":"Asian"}]},{"url":"http://hl7.org/fhir/us/core/StructureDefinition/us-core-ethnicity","extension":[{"url":"ombCategory","valueCoding":{"system":"urn:oid:2.16.840.1.113883.6.238","code":"2135-2","display":"Hispanic or Latino"}},{"url":"text","valueString":"Hispanic or Latino"}]}],"identifier":[{"system":"http://hospital.smarthealthit.org","value":"999999995"}],"name":[{"family":"Bertha","given":["Betty"]}],"gender":"female","birthDate":"2008-12-31"},"request":{"method":"PUT","url":"Patient/5624ca8c-a408-4097-889f-ecb15d2f7f09"}},{"fullUrl":"https://madie.cms.gov/Encounter/Encounter-5","resource":{"resourceType":"Encounter","id":"Encounter-5","meta":{"profile":["http://hl7.org/fhir/us/qicore/StructureDefinition/qicore-encounter"]},"status":"finished","class":{"system":"http://terminology.hl7.org/CodeSystem/v3-ActCode","code":"AMB","display":"ambulatory"},"type":[{"coding":[{"system":"http://snomed.info/sct","code":"185317003","display":"Telephone encounter (procedure)"}]}],"subject":{"reference":"Patient/5624ca8c-a408-4097-889f-ecb15d2f7f09"},"period":{"start":"2025-01-02T01:00:00.000Z","end":"2025-01-02T01:15:00.000Z"}},"request":{"method":"PUT","url":"Encounter/Encounter-5"}},{"fullUrl":"https://madie.cms.gov/Observation/Observation-5","resource":{"resourceType":"Observation","id":"Observation-5","meta":{"profile":["http://hl7.org/fhir/StructureDefinition/bmi"]},"status":"final","category":[{"coding":[{"system":"http://terminology.hl7.org/CodeSystem/observation-category","code":"vital-signs","display":"Vital Signs"}],"text":"Vital Signs"}],"code":{"coding":[{"system":"http://loinc.org","code":"39156-5","display":"Body mass index (BMI) [Ratio]"}],"text":"BMI"},"subject":{"reference":"Patient/5624ca8c-a408-4097-889f-ecb15d2f7f09"},"effectiveDateTime":"2025-01-02T00:00:00.000Z","valueQuantity":{"value":16.2,"unit":"kg/m2","system":"http://unitsofmeasure.org","code":"kg/m2"}},"request":{"method":"PUT","url":"Observation/Observation-5"}},{"fullUrl":"https://madie.cms.gov/Observation/Observation-6","resource":{"resourceType":"Observation","id":"Observation-6","meta":{"profile":["http://hl7.org/fhir/StructureDefinition/bodyheight"]},"status":"final","category":[{"coding":[{"system":"http://terminology.hl7.org/CodeSystem/observation-category","code":"vital-signs","display":"Vital Signs"}],"text":"Vital Signs"}],"code":{"coding":[{"system":"http://loinc.org","code":"8302-2","display":"Body height"}],"text":"Height"},"subject":{"reference":"Patient/5624ca8c-a408-4097-889f-ecb15d2f7f09"},"effectiveDateTime":"2025-01-02T00:00:00.000Z","valueQuantity":{"value":111.506,"unit":"cm","system":"http://unitsofmeasure.org","code":"cm"}},"request":{"method":"PUT","url":"Observation/Observation-6"}},{"fullUrl":"https://madie.cms.gov/Observation/Observation-7","resource":{"resourceType":"Observation","id":"Observation-7","meta":{"profile":["http://hl7.org/fhir/StructureDefinition/bodyweight"]},"status":"final","category":[{"coding":[{"system":"http://terminology.hl7.org/CodeSystem/observation-category","code":"vital-signs","display":"Vital Signs"}],"text":"Vital Signs"}],"code":{"coding":[{"system":"http://loinc.org","code":"29463-7","display":"Body weight"}],"text":"Weight"},"subject":{"reference":"Patient/5624ca8c-a408-4097-889f-ecb15d2f7f09"},"effectiveDateTime":"2025-01-02T00:00:00.000Z","valueQuantity":{"value":20.09414,"unit":"kg","system":"http://unitsofmeasure.org","code":"kg"}},"request":{"method":"PUT","url":"Observation/Observation-7"}},{"fullUrl":"https://madie.cms.gov/MeasureReport/1daa24fe-09b4-4f66-ac75-91216946860d","resource":{"resourceType":"MeasureReport","id":"1daa24fe-09b4-4f66-ac75-91216946860d","meta":{"profile":["http://hl7.org/fhir/us/cqfmeasures/StructureDefinition/test-case-cqfm"]},"contained":[{"resourceType":"Parameters","id":"1fdd0010-4f71-4001-a503-d895e5327ee2-parameters","parameter":[{"name":"subject","valueString":"5624ca8c-a408-4097-889f-ecb15d2f7f09"}]}],"extension":[{"url":"http://hl7.org/fhir/us/cqfmeasures/StructureDefinition/cqfm-inputParameters","valueReference":{"reference":"#1fdd0010-4f71-4001-a503-d895e5327ee2-parameters"}},{"url":"http://hl7.org/fhir/us/cqfmeasures/StructureDefinition/cqfm-testCaseDescription","valueMarkdown":"Patient has BMI, Height, and Weight documented."}],"modifierExtension":[{"url":"http://hl7.org/fhir/us/cqfmeasures/StructureDefinition/cqfm-isTestCase","valueBoolean":true}],"status":"complete","type":"individual","measure":"https://madie.cms.gov/Measure/WeightAssessmentandCounselingforNutritionandPhysicalActivityforChildrenandAdolescentsFHIR","period":{"start":"2025-01-01","end":"2025-12-31"},"group":[{"population":[{"code":{"coding":[{"system":"http://terminology.hl7.org/CodeSystem/measure-population","code":"initial-population","display":"Initial Population"}]},"count":1},{"code":{"coding":[{"system":"http://terminology.hl7.org/CodeSystem/measure-population","code":"denominator","display":"Denominator"}]},"count":1},{"code":{"coding":[{"system":"http://terminology.hl7.org/CodeSystem/measure-population","code":"denominator-exclusion","display":"Denominator Exclusion"}]},"count":0},{"code":{"coding":[{"system":"http://terminology.hl7.org/CodeSystem/measure-population","code":"numerator","display":"Numerator"}]},"count":1}]},{"population":[{"code":{"coding":[{"system":"http://terminology.hl7.org/CodeSystem/measure-population","code":"initial-population","display":"Initial Population"}]},"count":1},{"code":{"coding":[{"system":"http://terminology.hl7.org/CodeSystem/measure-population","code":"denominator","display":"Denominator"}]},"count":1},{"code":{"coding":[{"system":"http://terminology.hl7.org/CodeSystem/measure-population","code":"denominator-exclusion","display":"Denominator Exclusion"}]},"count":0},{"code":{"coding":[{"system":"http://terminology.hl7.org/CodeSystem/measure-population","code":"numerator","display":"Numerator"}]},"count":0}]},{"population":[{"code":{"coding":[{"system":"http://terminology.hl7.org/CodeSystem/measure-population","code":"initial-population","display":"Initial Population"}]},"count":1},{"code":{"coding":[{"system":"http://terminology.hl7.org/CodeSystem/measure-population","code":"denominator","display":"Denominator"}]},"count":1},{"code":{"coding":[{"system":"http://terminology.hl7.org/CodeSystem/measure-population","code":"denominator-exclusion","display":"Denominator Exclusion"}]},"count":0},{"code":{"coding":[{"system":"http://terminology.hl7.org/CodeSystem/measure-population","code":"numerator","display":"Numerator"}]},"count":0}]}],"evaluatedResource":[{"reference":"Patient/5624ca8c-a408-4097-889f-ecb15d2f7f09"},{"reference":"Encounter/Encounter-5"},{"reference":"Observation/Observation-5"},{"reference":"Observation/Observation-6"},{"reference":"Observation/Observation-7"}]},"request":{"method":"PUT","url":"MeasureReport/1daa24fe-09b4-4f66-ac75-91216946860d"}}]}