{
  "resourceType": "Bundle",
  "id": "612e6f7502c62a011f2f1ee2",
  "type": "transaction",
  "entry": [ {
    "fullUrl": "https://madie.cms.gov/Patient/b8e41837-b85a-46d3-b92c-77c24952c52a",
    "resource": {
      "resourceType": "Patient",
      "id": "b8e41837-b85a-46d3-b92c-77c24952c52a",
      "meta": {
        "profile": [ "http://hl7.org/fhir/us/qicore/StructureDefinition/qicore-patient" ]
      },
      "text": {
        "status": "generated",
        "div": "<div xmlns=\"http://www.w3.org/1999/xhtml\"><div class=\"hapiHeaderText\">HipReplSurgeryEndsLT1DayAfterICUStart <b>DENEXPASS </b></div><table class=\"hapiPropertyTable\"><tbody><tr><td>Identifier</td><td>c86bf4d45e0ace80da93806dc6ebb45b</td></tr><tr><td>Date of birth</td><td><span>03 December 1965</span></td></tr></tbody></table></div>"
      },
      "extension": [ {
        "url": "http://hl7.org/fhir/us/core/StructureDefinition/us-core-race",
        "extension": [ {
          "url": "ombCategory",
          "valueCoding": {
            "system": "urn:oid:2.16.840.1.113883.6.238",
            "code": "1002-5",
            "display": "American Indian or Alaska Native",
            "userSelected": true
          }
        }, {
          "url": "text",
          "valueString": "American Indian or Alaska Native"
        } ]
      }, {
        "url": "http://hl7.org/fhir/us/core/StructureDefinition/us-core-ethnicity",
        "extension": [ {
          "url": "ombCategory",
          "valueCoding": {
            "system": "urn:oid:2.16.840.1.113883.6.238",
            "code": "2135-2",
            "display": "Hispanic or Latino",
            "userSelected": true
          }
        }, {
          "url": "text",
          "valueString": "Hispanic or Latino"
        } ]
      } ],
      "identifier": [ {
        "type": {
          "coding": [ {
            "system": "http://terminology.hl7.org/CodeSystem/v2-0203",
            "code": "MR"
          } ]
        },
        "system": "https://bonnie-fhir.healthit.gov/",
        "value": "612e6f7502c62a011f2f1ee2"
      } ],
      "active": true,
      "name": [ {
        "use": "usual",
        "family": "DENEXPass",
        "given": [ "HipReplSurgeryEndsLT1DayAfterICUStart" ]
      } ],
      "gender": "female",
      "birthDate": "1965-12-03"
    },
    "request": {
      "method": "POST",
      "url": "Patient/b8e41837-b85a-46d3-b92c-77c24952c52a"
    }
  }, {
    "fullUrl": "https://madie.cms.gov/Encounter/5ce8096db848467c29eaf0dc",
    "resource": {
      "resourceType": "Encounter",
      "id": "5ce8096db848467c29eaf0dc",
      "meta": {
        "profile": [ "http://hl7.org/fhir/us/qicore/StructureDefinition/qicore-encounter" ]
      },
      "extension": [ {
        "url": "http://hl7.org/fhir/us/qicore/StructureDefinition/qicore-encounter-procedure",
        "extension": [ {
          "url": "type",
          "valueCodeableConcept": {
            "coding": [ {
              "system": "http://www.cms.gov/Medicare/Coding/ICD10",
              "code": "0SP909Z"
            } ]
          }
        }, {
          "url": "rank",
          "valuePositiveInt": 1
        }, {
          "url": "procedure",
          "valueReference": {
            "reference": "Procedure/5e262d38659646000031b1b6"
          }
        } ]
      } ],
      "status": "finished",
      "class": {
        "system": "http://terminology.hl7.org/CodeSystem/v3-ActCode",
        "code": "IMP",
        "display": "inpatient encounter"
      },
      "type": [ {
        "coding": [ {
          "system": "http://snomed.info/sct",
          "code": "8715000"
        } ]
      } ],
      "subject": {
        "reference": "Patient/b8e41837-b85a-46d3-b92c-77c24952c52a"
      },
      "period": {
        "start": "2025-12-04T08:00:00+00:00",
        "end": "2025-12-30T08:15:00+00:00"
      },
      "length": {
        "value": 26.0,
        "unit": "days"
      },
      "location": [ {
        "location": {
          "reference": "Location/Location-1"
        },
        "period": {
          "start": "2025-12-06T08:00:00.000+00:00",
          "end": "2025-12-08T08:15:00.000+00:00"
        }
      } ]
    },
    "request": {
      "method": "POST",
      "url": "Encounter/5ce8096db848467c29eaf0dc"
    }
  }, {
    "fullUrl": "https://madie.cms.gov/Coverage/5fa041091c76ba66d995911d",
    "resource": {
      "resourceType": "Coverage",
      "id": "5fa041091c76ba66d995911d",
      "status": "active",
      "beneficiary": {
        "reference": "Patient/b8e41837-b85a-46d3-b92c-77c24952c52a"
      },
      "period": {
        "start": "1974-03-03T08:00:00+00:00"
      },
      "payor": [ {
        "reference": "Organization/123456"
      } ]
    },
    "request": {
      "method": "POST",
      "url": "Coverage/5fa041091c76ba66d995911d"
    }
  }, {
    "fullUrl": "https://madie.cms.gov/Procedure/5e262d38659646000031b1b6",
    "resource": {
      "resourceType": "Procedure",
      "id": "5e262d38659646000031b1b6",
      "meta": {
        "profile": [ "http://hl7.org/fhir/us/qicore/StructureDefinition/qicore-procedure" ]
      },
      "extension": [ {
        "url": "http://hl7.org/fhir/us/qicore/StructureDefinition/qicore-recorded",
        "valueDateTime": "2012-12-07T09:35:00-04:00"
      } ],
      "status": "completed",
      "code": {
        "coding": [ {
          "system": "http://www.cms.gov/Medicare/Coding/ICD10",
          "code": "0SP909Z"
        } ]
      },
      "subject": {
        "reference": "Patient/b8e41837-b85a-46d3-b92c-77c24952c52a"
      },
      "performedPeriod": {
        "start": "2025-12-06T06:00:00+00:00",
        "end": "2025-12-06T09:15:00+00:00"
      }
    },
    "request": {
      "method": "POST",
      "url": "Procedure/5e262d38659646000031b1b6"
    }
  }, {
    "fullUrl": "https://madie.cms.gov/Location/Location-1",
    "resource": {
      "resourceType": "Location",
      "id": "intensive-care-unit-c76f",
      "meta": {
        "profile": [ "http://hl7.org/fhir/us/qicore/StructureDefinition/qicore-location" ]
      },
      "identifier": [ {
        "use": "usual",
        "system": "http://exampleoflocation.com",
        "value": "B1-S.F2"
      } ],
      "name": "Medical Surgical East, first floor",
      "type": [ {
        "coding": [ {
          "system": "https://www.cdc.gov/nhsn/cdaportal/terminology/codesystem/hsloc.html",
          "code": "1025-6",
          "display": "Trauma Critical Care",
          "userSelected": true
        } ]
      } ]
    },
    "request": {
      "method": "POST",
      "url": "Location/Location-1"
    }
  }, {
    "fullUrl": "https://madie.cms.gov/Organization/123456",
    "resource": {
      "resourceType": "Organization",
      "id": "123456",
      "meta": {
        "profile": [ "http://hl7.org/fhir/us/qicore/StructureDefinition/qicore-organization" ]
      },
      "identifier": [ {
        "use": "temp",
        "system": "urn:oid:2.16.840.1.113883.4.4",
        "value": "21-3259825"
      } ],
      "active": true,
      "type": [ {
        "coding": [ {
          "system": "http://terminology.hl7.org/CodeSystem/organization-type",
          "code": "pay",
          "display": "Payer"
        } ]
      } ],
      "name": "Blue Cross Blue Shield of Texas",
      "telecom": [ {
        "system": "phone",
        "value": "(+1) 972-766-6900"
      } ],
      "address": [ {
        "use": "billing",
        "type": "postal",
        "line": [ "P.O. Box 660044" ],
        "city": "Dallas",
        "state": "TX",
        "postalCode": "75266-0044",
        "country": "USA"
      } ]
    },
    "request": {
      "method": "POST",
      "url": "Organization/123456"
    }
  }, {
    "fullUrl": "https://madie.cms.gov/Practitioner/practitioner-123456",
    "resource": {
      "resourceType": "Practitioner",
      "id": "practitioner-123456",
      "identifier": [ {
        "system": "http://hl7.org/fhir/sid/us-npi",
        "value": "123456"
      } ],
      "name": [ {
        "family": "Evil",
        "prefix": [ "Dr" ]
      } ]
    },
    "request": {
      "method": "POST",
      "url": "Practitioner/practitioner-123456"
    }
  }, {
    "fullUrl": "https://madie.cms.gov/MeasureReport/150d3e9f-bb25-4225-832d-4d74d98b56c0",
    "resource": {
      "resourceType": "MeasureReport",
      "id": "150d3e9f-bb25-4225-832d-4d74d98b56c0",
      "meta": {
        "profile": [ "http://hl7.org/fhir/us/cqfmeasures/StructureDefinition/test-case-cqfm" ]
      },
      "contained": [ {
        "resourceType": "Parameters",
        "id": "2c5ff503-fb71-466c-93aa-6fb99be41ce4-parameters",
        "parameter": [ {
          "name": "subject",
          "valueString": "b8e41837-b85a-46d3-b92c-77c24952c52a"
        } ]
      } ],
      "extension": [ {
        "url": "http://hl7.org/fhir/us/cqfmeasures/StructureDefinition/cqfm-inputParameters",
        "valueReference": {
          "reference": "#2c5ff503-fb71-466c-93aa-6fb99be41ce4-parameters"
        }
      }, {
        "url": "http://hl7.org/fhir/us/cqfmeasures/StructureDefinition/cqfm-testCaseDescription",
        "valueMarkdown": "HipReplSurgeryEnds<1DayAfterICUStart\n"
      } ],
      "modifierExtension": [ {
        "url": "http://hl7.org/fhir/us/cqfmeasures/StructureDefinition/cqfm-isTestCase",
        "valueBoolean": true
      } ],
      "status": "complete",
      "type": "individual",
      "measure": "https://madie.cms.gov/Measure/IntensiveCareUnitVenousThromboembolismProphylaxisFHIR",
      "period": {
        "start": "2025-01-01",
        "end": "2025-12-31"
      },
      "group": [ {
        "population": [ {
          "code": {
            "coding": [ {
              "system": "http://terminology.hl7.org/CodeSystem/measure-population",
              "code": "initial-population",
              "display": "Initial Population"
            } ]
          },
          "count": 1
        }, {
          "code": {
            "coding": [ {
              "system": "http://terminology.hl7.org/CodeSystem/measure-population",
              "code": "denominator",
              "display": "Denominator"
            } ]
          },
          "count": 1
        }, {
          "code": {
            "coding": [ {
              "system": "http://terminology.hl7.org/CodeSystem/measure-population",
              "code": "denominator-exclusion",
              "display": "Denominator Exclusion"
            } ]
          },
          "count": 1
        }, {
          "code": {
            "coding": [ {
              "system": "http://terminology.hl7.org/CodeSystem/measure-population",
              "code": "numerator",
              "display": "Numerator"
            } ]
          },
          "count": 0
        }, {
          "code": {
            "coding": [ {
              "system": "http://terminology.hl7.org/CodeSystem/measure-population",
              "code": "denominator-exception",
              "display": "Denominator Exception"
            } ]
          },
          "count": 0
        } ]
      } ],
      "evaluatedResource": [ {
        "reference": "https://madie.cms.gov/Patient/b8e41837-b85a-46d3-b92c-77c24952c52a"
      }, {
        "reference": "https://madie.cms.gov/Encounter/5ce8096db848467c29eaf0dc"
      }, {
        "reference": "https://madie.cms.gov/Coverage/5fa041091c76ba66d995911d"
      }, {
        "reference": "https://madie.cms.gov/Procedure/5e262d38659646000031b1b6"
      }, {
        "reference": "https://madie.cms.gov/Location/Location-1"
      }, {
        "reference": "https://madie.cms.gov/Organization/123456"
      }, {
        "reference": "https://madie.cms.gov/Practitioner/practitioner-123456"
      } ]
    },
    "request": {
      "method": "POST",
      "url": "MeasureReport/150d3e9f-bb25-4225-832d-4d74d98b56c0"
    }
  } ]
}