{"resourceType":"Bundle","id":"tests-f36ebb57-2822-42cc-87de-5bcf897e3db7-bundle","type":"transaction","entry":[{"fullUrl":"https://madie.cms.gov/Patient/f36ebb57-2822-42cc-87de-5bcf897e3db7","resource":{"resourceType":"Patient","id":"f36ebb57-2822-42cc-87de-5bcf897e3db7","meta":{"profile":["http://hl7.org/fhir/us/qicore/StructureDefinition/qicore-patient"]},"extension":[{"url":"http://hl7.org/fhir/us/core/StructureDefinition/us-core-race","extension":[{"url":"ombCategory","valueCoding":{"system":"urn:oid:2.16.840.1.113883.6.238","code":"2028-9","display":"Asian"}},{"url":"text","valueString":"Asian"}]},{"url":"http://hl7.org/fhir/us/core/StructureDefinition/us-core-ethnicity","extension":[{"url":"ombCategory","valueCoding":{"system":"urn:oid:2.16.840.1.113883.6.238","code":"2135-2","display":"Hispanic or Latino"}},{"url":"text","valueString":"Hispanic or Latino"}]}],"identifier":[{"system":"http://hospital.smarthealthit.org","value":"999999995"}],"name":[{"family":"Bertha","given":["Betty"]}],"gender":"female","birthDate":"1960-01-01"},"request":{"method":"PUT","url":"Patient/f36ebb57-2822-42cc-87de-5bcf897e3db7"}},{"fullUrl":"https://madie.cms.gov/Encounter/Encounter-28","resource":{"resourceType":"Encounter","id":"Encounter-28","meta":{"profile":["http://hl7.org/fhir/us/qicore/StructureDefinition/qicore-encounter"]},"status":"finished","class":{"system":"http://terminology.hl7.org/CodeSystem/v3-ActCode","code":"AMB","display":"ambulatory"},"type":[{"coding":[{"system":"http://www.ama-assn.org/go/cpt","version":"2023","code":"99411","display":"Preventive medicine counseling and/or risk factor reduction intervention(s) provided to individuals in a group setting (separate procedure); approximately 30 minutes"}]}],"subject":{"reference":"Patient/f36ebb57-2822-42cc-87de-5bcf897e3db7"},"period":{"start":"2025-01-01T00:00:00.000Z","end":"2025-01-01T01:15:00.000Z"}},"request":{"method":"PUT","url":"Encounter/Encounter-28"}},{"fullUrl":"https://madie.cms.gov/Condition/Condition-24","resource":{"resourceType":"Condition","id":"Condition-24","meta":{"profile":["http://hl7.org/fhir/us/qicore/StructureDefinition/qicore-condition"]},"clinicalStatus":{"coding":[{"system":"http://terminology.hl7.org/CodeSystem/condition-clinical","code":"active"}]},"category":[{"coding":[{"system":"http://terminology.hl7.org/CodeSystem/condition-category","code":"problem-list-item","display":"Problem List Item"}]}],"code":{"coding":[{"system":"http://snomed.info/sct","code":"54398005","display":"Acute upper respiratory infection (disorder)"}]},"subject":{"reference":"Patient/f36ebb57-2822-42cc-87de-5bcf897e3db7"},"onsetDateTime":"2025-01-01T01:00:00.000Z"},"request":{"method":"PUT","url":"Condition/Condition-24"}},{"fullUrl":"https://madie.cms.gov/MedicationRequest/MedicationRequest-4","resource":{"resourceType":"MedicationRequest","id":"MedicationRequest-4","meta":{"profile":["http://hl7.org/fhir/us/qicore/StructureDefinition/qicore-medicationrequest"]},"status":"active","intent":"order","category":[{"coding":[{"system":"http://terminology.hl7.org/CodeSystem/medicationrequest-category","code":"discharge","display":"Discharge"}]}],"medicationCodeableConcept":{"coding":[{"system":"http://www.nlm.nih.gov/research/umls/rxnorm","code":"1043022","display":"cefixime 100 MG Chewable Tablet","userSelected":true}]},"subject":{"reference":"Patient/f36ebb57-2822-42cc-87de-5bcf897e3db7"},"authoredOn":"2025-01-01T00:00:00.000Z","requester":{"reference":"Practitioner/example"}},"request":{"method":"PUT","url":"MedicationRequest/MedicationRequest-4"}},{"fullUrl":"https://madie.cms.gov/MeasureReport/8e68df2e-23ff-4e64-866c-cc1a84b57c67","resource":{"resourceType":"MeasureReport","id":"8e68df2e-23ff-4e64-866c-cc1a84b57c67","meta":{"profile":["http://hl7.org/fhir/us/cqfmeasures/StructureDefinition/test-case-cqfm"]},"contained":[{"resourceType":"Parameters","id":"cc0fb881-341b-4dd3-a6d3-e20ec647d64d-parameters","parameter":[{"name":"subject","valueString":"f36ebb57-2822-42cc-87de-5bcf897e3db7"}]}],"extension":[{"url":"http://hl7.org/fhir/us/cqfmeasures/StructureDefinition/cqfm-inputParameters","valueReference":{"reference":"#cc0fb881-341b-4dd3-a6d3-e20ec647d64d-parameters"}},{"url":"http://hl7.org/fhir/us/cqfmeasures/StructureDefinition/cqfm-testCaseDescription","valueMarkdown":"Encounter with URI and antibiotics ordered the same day"}],"modifierExtension":[{"url":"http://hl7.org/fhir/us/cqfmeasures/StructureDefinition/cqfm-isTestCase","valueBoolean":true}],"status":"complete","type":"individual","measure":"https://madie.cms.gov/Measure/AppropriateTreatmentforUpperRespiratoryInfectionURIFHIR","period":{"start":"2025-01-01","end":"2025-12-31"},"group":[{"population":[{"code":{"coding":[{"system":"http://terminology.hl7.org/CodeSystem/measure-population","code":"initial-population","display":"Initial Population"}]},"count":1},{"code":{"coding":[{"system":"http://terminology.hl7.org/CodeSystem/measure-population","code":"denominator","display":"Denominator"}]},"count":1},{"code":{"coding":[{"system":"http://terminology.hl7.org/CodeSystem/measure-population","code":"denominator-exclusion","display":"Denominator Exclusion"}]},"count":0},{"code":{"coding":[{"system":"http://terminology.hl7.org/CodeSystem/measure-population","code":"numerator","display":"Numerator"}]},"count":0}]}],"evaluatedResource":[{"reference":"Patient/f36ebb57-2822-42cc-87de-5bcf897e3db7"},{"reference":"Encounter/Encounter-28"},{"reference":"Condition/Condition-24"},{"reference":"MedicationRequest/MedicationRequest-4"}]},"request":{"method":"PUT","url":"MeasureReport/8e68df2e-23ff-4e64-866c-cc1a84b57c67"}}]}