{"resourceType":"Bundle","id":"tests-435d23cc-57ef-4f7f-aec3-c7ef524d5cd1-bundle","type":"transaction","entry":[{"fullUrl":"https://madie.cms.gov/Patient/435d23cc-57ef-4f7f-aec3-c7ef524d5cd1","resource":{"resourceType":"Patient","id":"435d23cc-57ef-4f7f-aec3-c7ef524d5cd1","meta":{"profile":["http://hl7.org/fhir/us/qicore/StructureDefinition/qicore-patient"]},"extension":[{"url":"http://hl7.org/fhir/us/core/StructureDefinition/us-core-race","extension":[{"url":"ombCategory","valueCoding":{"system":"urn:oid:2.16.840.1.113883.6.238","code":"1002-5","display":"American Indian or Alaska Native","userSelected":true}},{"url":"text","valueString":"American Indian or Alaska Native"}]},{"url":"http://hl7.org/fhir/us/core/StructureDefinition/us-core-ethnicity","extension":[{"url":"ombCategory","valueCoding":{"system":"urn:oid:2.16.840.1.113883.6.238","code":"2135-2","display":"Hispanic or Latino","userSelected":true}},{"url":"text","valueString":"Hispanic or Latino"}]}],"identifier":[{"type":{"coding":[{"system":"http://terminology.hl7.org/CodeSystem/v2-0203","code":"MR"}]},"system":"https://bonnie-fhir.healthit.gov/","value":"62a89870cadf7512b3f7b30c"}],"name":[{"family":"DENEXPass","given":["HTNOneDayBeforeEnc"]}],"gender":"male","birthDate":"2005-01-01"},"request":{"method":"PUT","url":"Patient/435d23cc-57ef-4f7f-aec3-c7ef524d5cd1"}},{"fullUrl":"https://madie.cms.gov/Encounter/encounter-to-screen-for-blood-pressure-b30d","resource":{"resourceType":"Encounter","id":"2bc81b2f-b5ec-4169-9584-ccb449da1e80","meta":{"profile":["http://hl7.org/fhir/us/qicore/StructureDefinition/qicore-encounter"]},"status":"finished","class":{"system":"http://terminology.hl7.org/CodeSystem/v3-ActCode","code":"AMB","display":"ambulatory"},"type":[{"coding":[{"system":"http://snomed.info/sct","version":"2022-03","code":"4525004","display":"Emergency department patient visit (procedure)","userSelected":true}]}],"subject":{"reference":"Patient/435d23cc-57ef-4f7f-aec3-c7ef524d5cd1"},"period":{"start":"2025-01-01T08:00:00.000+00:00","end":"2025-01-01T10:00:00.000+00:00"}},"request":{"method":"PUT","url":"Encounter/2bc81b2f-b5ec-4169-9584-ccb449da1e80"}},{"fullUrl":"https://madie.cms.gov/Condition/diagnosis-of-hypertension-b30e","resource":{"resourceType":"Condition","id":"05feb652-a40f-4451-8bf8-9cca3bdd694b","meta":{"profile":["http://hl7.org/fhir/us/qicore/StructureDefinition/qicore-condition"]},"clinicalStatus":{"coding":[{"system":"http://terminology.hl7.org/CodeSystem/condition-clinical","code":"recurrence","display":"recurrence","userSelected":true}]},"verificationStatus":{"coding":[{"system":"http://terminology.hl7.org/CodeSystem/condition-ver-status","code":"confirmed","display":"Confirmed","userSelected":true}]},"category":[{"coding":[{"system":"http://hl7.org/fhir/us/core/CodeSystem/condition-category","code":"health-concern","display":"Health health-concern"}]}],"code":{"coding":[{"system":"http://snomed.info/sct","version":"2022-03","code":"31992008","display":"Secondary hypertension (disorder)","userSelected":true}]},"subject":{"reference":"Patient/435d23cc-57ef-4f7f-aec3-c7ef524d5cd1"},"onsetPeriod":{"start":"2023-12-31T15:00:00.000+00:00"}},"request":{"method":"PUT","url":"Condition/05feb652-a40f-4451-8bf8-9cca3bdd694b"}},{"fullUrl":"https://madie.cms.gov/Coverage/1","resource":{"resourceType":"Coverage","id":"9e76e170-e85d-4f3c-91ee-7890dce71bee","meta":{"profile":["http://hl7.org/fhir/us/qicore/StructureDefinition/qicore-coverage"]},"status":"active","beneficiary":{"reference":"Patient/435d23cc-57ef-4f7f-aec3-c7ef524d5cd1"},"payor":[{"reference":"Organization/4b5a882f-1f43-485c-85c6-f5ad2337d5b1"}]},"request":{"method":"PUT","url":"Coverage/9e76e170-e85d-4f3c-91ee-7890dce71bee"}},{"fullUrl":"https://madie.cms.gov/Organization/123456","resource":{"resourceType":"Organization","id":"4b5a882f-1f43-485c-85c6-f5ad2337d5b1","meta":{"profile":["http://hl7.org/fhir/us/qicore/StructureDefinition/qicore-organization"]},"identifier":[{"use":"temp","system":"urn:oid:2.16.840.1.113883.4.4","value":"21-3259825"}],"active":true,"type":[{"coding":[{"system":"http://terminology.hl7.org/CodeSystem/organization-type","code":"pay","display":"Payer"}]}],"name":"Blue Cross Blue Shield of Texas","telecom":[{"system":"phone","value":"(+1) 972-766-6900"}],"address":[{"use":"billing","type":"postal","line":["P.O. Box 660044"],"city":"Dallas","state":"TX","postalCode":"75266-0044","country":"USA"}]},"request":{"method":"PUT","url":"Organization/4b5a882f-1f43-485c-85c6-f5ad2337d5b1"}},{"fullUrl":"https://madie.cms.gov/Practitioner/practitioner-123456","resource":{"resourceType":"Practitioner","id":"28f60fd6-c0dd-4ca1-a133-cfc02067225d","meta":{"profile":["http://hl7.org/fhir/us/qicore/StructureDefinition/qicore-practitioner"]},"identifier":[{"system":"http://hl7.org/fhir/sid/us-npi","value":"123456"}],"name":[{"family":"Evil","prefix":["Dr"]}]},"request":{"method":"PUT","url":"Practitioner/28f60fd6-c0dd-4ca1-a133-cfc02067225d"}},{"fullUrl":"https://madie.cms.gov/MeasureReport/794bf4a1-2bf3-4adf-a39b-5db02d09433f","resource":{"resourceType":"MeasureReport","id":"794bf4a1-2bf3-4adf-a39b-5db02d09433f","meta":{"profile":["http://hl7.org/fhir/us/cqfmeasures/StructureDefinition/test-case-cqfm"]},"contained":[{"resourceType":"Parameters","id":"5138bcc2-b3dd-465e-9b3f-f349d339a481-parameters","parameter":[{"name":"subject","valueString":"435d23cc-57ef-4f7f-aec3-c7ef524d5cd1"}]}],"extension":[{"url":"http://hl7.org/fhir/us/cqfmeasures/StructureDefinition/cqfm-inputParameters","valueReference":{"reference":"#5138bcc2-b3dd-465e-9b3f-f349d339a481-parameters"}},{"url":"http://hl7.org/fhir/us/cqfmeasures/StructureDefinition/cqfm-testCaseDescription","valueMarkdown":"Enc first day of MP, HTN (health concern, recurrence) dx last day of prior year"}],"modifierExtension":[{"url":"http://hl7.org/fhir/us/cqfmeasures/StructureDefinition/cqfm-isTestCase","valueBoolean":true}],"status":"complete","type":"individual","measure":"https://madie.cms.gov/Measure/PCSBPScreeningFollowUpFHIR","period":{"start":"2025-01-01","end":"2025-12-31"},"group":[{"population":[{"code":{"coding":[{"system":"http://terminology.hl7.org/CodeSystem/measure-population","code":"initial-population","display":"Initial Population"}]},"count":1},{"code":{"coding":[{"system":"http://terminology.hl7.org/CodeSystem/measure-population","code":"denominator","display":"Denominator"}]},"count":1},{"code":{"coding":[{"system":"http://terminology.hl7.org/CodeSystem/measure-population","code":"denominator-exclusion","display":"Denominator Exclusion"}]},"count":1},{"code":{"coding":[{"system":"http://terminology.hl7.org/CodeSystem/measure-population","code":"numerator","display":"Numerator"}]},"count":0},{"code":{"coding":[{"system":"http://terminology.hl7.org/CodeSystem/measure-population","code":"denominator-exception","display":"Denominator Exception"}]},"count":0}]}]},"request":{"method":"PUT","url":"MeasureReport/794bf4a1-2bf3-4adf-a39b-5db02d09433f"}}]}