{"resourceType":"Bundle","id":"tests-afdeaa75-d332-40f2-9b30-0b6ddf7e7c14-bundle","type":"transaction","entry":[{"fullUrl":"https://madie.cms.gov/Patient/afdeaa75-d332-40f2-9b30-0b6ddf7e7c14","resource":{"resourceType":"Patient","id":"afdeaa75-d332-40f2-9b30-0b6ddf7e7c14","meta":{"profile":["http://hl7.org/fhir/us/qicore/StructureDefinition/qicore-patient"]},"extension":[{"url":"http://hl7.org/fhir/us/core/StructureDefinition/us-core-race","extension":[{"url":"ombCategory","valueCoding":{"system":"urn:oid:2.16.840.1.113883.6.238","code":"2106-3","display":"White","userSelected":true}},{"url":"text","valueString":"White"}]},{"url":"http://hl7.org/fhir/us/core/StructureDefinition/us-core-ethnicity","extension":[{"url":"ombCategory","valueCoding":{"system":"urn:oid:2.16.840.1.113883.6.238","code":"2186-5","display":"Not Hispanic or Latino","userSelected":true}},{"url":"text","valueString":"Not Hispanic or Latino"}]}],"identifier":[{"type":{"coding":[{"system":"http://terminology.hl7.org/CodeSystem/v2-0203","code":"MR"}]},"system":"https://bonnie-fhir.healthit.gov/","value":"62d7354fc22c612899b40d6c"}],"name":[{"family":"DENEXCEPPass","given":["ElevatedDeclineFU"]}],"gender":"male","birthDate":"2004-01-01"},"request":{"method":"PUT","url":"Patient/afdeaa75-d332-40f2-9b30-0b6ddf7e7c14"}},{"fullUrl":"https://madie.cms.gov/Encounter/encounter-to-screen-for-blood-pressure-d1ae","resource":{"resourceType":"Encounter","id":"encounter-to-screen-for-blood-pressure-d1ae","meta":{"profile":["http://hl7.org/fhir/us/qicore/StructureDefinition/qicore-encounter"]},"status":"finished","class":{"system":"http://terminology.hl7.org/CodeSystem/v3-ActCode","code":"AMB","display":"ambulatory"},"type":[{"coding":[{"system":"http://snomed.info/sct","version":"2022-03","code":"103705002","display":"Patient status observation (procedure)","userSelected":true}]}],"subject":{"reference":"Patient/afdeaa75-d332-40f2-9b30-0b6ddf7e7c14"},"period":{"start":"2025-01-01T08:00:00.000+00:00","end":"2025-01-01T08:30:00.000+00:00"}},"request":{"method":"PUT","url":"Encounter/encounter-to-screen-for-blood-pressure-d1ae"}},{"fullUrl":"https://madie.cms.gov/Observation/blood-pressure-1","resource":{"resourceType":"Observation","id":"blood-pressure-1","meta":{"profile":["http://hl7.org/fhir/StructureDefinition/bp"]},"status":"final","category":[{"coding":[{"system":"http://terminology.hl7.org/CodeSystem/observation-category","code":"vital-signs","display":"Vital Signs"}],"text":"Vital Signs"}],"code":{"coding":[{"system":"http://loinc.org","code":"85354-9","display":"Blood pressure panel"}]},"subject":{"reference":"Patient/afdeaa75-d332-40f2-9b30-0b6ddf7e7c14"},"effectiveDateTime":"2025-01-01T08:05:00.000Z","component":[{"code":{"coding":[{"system":"http://loinc.org","code":"8480-6","display":"Systolic blood pressure"}]},"valueQuantity":{"value":120,"unit":"mmHg","system":"http://unitsofmeasure.org","code":"mm[Hg]"}},{"code":{"coding":[{"system":"http://loinc.org","code":"8462-4","display":"Diastolic blood pressure"}]},"valueQuantity":{"value":79,"unit":"mmHg","system":"http://unitsofmeasure.org","code":"mm[Hg]"}}]},"request":{"method":"PUT","url":"Observation/blood-pressure-1"}},{"fullUrl":"https://madie.cms.gov/ServiceRequest/follow-up-2-3-months-finding-0d6d","resource":{"resourceType":"ServiceRequest","id":"follow-up-2-3-months-finding-0d6d","meta":{"profile":["http://hl7.org/fhir/us/qicore/StructureDefinition/qicore-servicenotrequested"]},"extension":[{"url":"http://hl7.org/fhir/us/qicore/StructureDefinition/qicore-doNotPerformReason","valueCodeableConcept":{"coding":[{"system":"http://snomed.info/sct","code":"105480006","display":"Procedure declined by patient (situation)","userSelected":true}]}}],"status":"completed","intent":"order","doNotPerform":true,"code":{"coding":[{"system":"http://snomed.info/sct","code":"183624006","display":"Follow-up 2-3 months (finding)","userSelected":true}]},"subject":{"reference":"Patient/afdeaa75-d332-40f2-9b30-0b6ddf7e7c14"},"authoredOn":"2025-01-01T08:20:00.000+00:00"},"request":{"method":"PUT","url":"ServiceRequest/follow-up-2-3-months-finding-0d6d"}},{"fullUrl":"https://madie.cms.gov/Coverage/1","resource":{"resourceType":"Coverage","id":"Coverage-1","meta":{"profile":["http://hl7.org/fhir/us/qicore/StructureDefinition/qicore-coverage"]},"status":"active","beneficiary":{"reference":"Patient/afdeaa75-d332-40f2-9b30-0b6ddf7e7c14"},"payor":[{"reference":"Organization/Org-123456"}]},"request":{"method":"PUT","url":"Coverage/Coverage-1"}},{"fullUrl":"https://madie.cms.gov/Organization/123456","resource":{"resourceType":"Organization","id":"Org-123456","meta":{"profile":["http://hl7.org/fhir/us/qicore/StructureDefinition/qicore-organization"]},"identifier":[{"use":"temp","system":"urn:oid:2.16.840.1.113883.4.4","value":"21-3259825"}],"active":true,"type":[{"coding":[{"system":"http://terminology.hl7.org/CodeSystem/organization-type","code":"pay","display":"Payer"}]}],"name":"Blue Cross Blue Shield of Texas","telecom":[{"system":"phone","value":"(+1) 972-766-6900"}],"address":[{"use":"billing","type":"postal","line":["P.O. Box 660044"],"city":"Dallas","state":"TX","postalCode":"75266-0044","country":"USA"}]},"request":{"method":"PUT","url":"Organization/Org-123456"}},{"fullUrl":"https://madie.cms.gov/Practitioner/practitioner-123456","resource":{"resourceType":"Practitioner","id":"practitioner-123456","meta":{"profile":["http://hl7.org/fhir/us/qicore/StructureDefinition/qicore-practitioner"]},"identifier":[{"system":"http://hl7.org/fhir/sid/us-npi","value":"123456"}],"name":[{"family":"Evil","prefix":["Dr"]}]},"request":{"method":"PUT","url":"Practitioner/practitioner-123456"}},{"fullUrl":"https://madie.cms.gov/MeasureReport/2960c1ab-fb39-4918-88c9-d71be482f985","resource":{"resourceType":"MeasureReport","id":"2960c1ab-fb39-4918-88c9-d71be482f985","meta":{"profile":["http://hl7.org/fhir/us/cqfmeasures/StructureDefinition/test-case-cqfm"]},"contained":[{"resourceType":"Parameters","id":"08504d12-7cd8-4f5f-91ba-6f177927c588-parameters","parameter":[{"name":"subject","valueString":"afdeaa75-d332-40f2-9b30-0b6ddf7e7c14"}]}],"extension":[{"url":"http://hl7.org/fhir/us/cqfmeasures/StructureDefinition/cqfm-inputParameters","valueReference":{"reference":"#08504d12-7cd8-4f5f-91ba-6f177927c588-parameters"}},{"url":"http://hl7.org/fhir/us/cqfmeasures/StructureDefinition/cqfm-testCaseDescription","valueMarkdown":"Enc. 1/1  0800-0830 during MP, BP 120/79, pt. refused f/u 2-3 months."}],"modifierExtension":[{"url":"http://hl7.org/fhir/us/cqfmeasures/StructureDefinition/cqfm-isTestCase","valueBoolean":true}],"status":"complete","type":"individual","measure":"https://madie.cms.gov/Measure/PCSBPScreeningFollowUpFHIR","period":{"start":"2025-01-01","end":"2025-12-31"},"group":[{"population":[{"code":{"coding":[{"system":"http://terminology.hl7.org/CodeSystem/measure-population","code":"initial-population","display":"Initial Population"}]},"count":1},{"code":{"coding":[{"system":"http://terminology.hl7.org/CodeSystem/measure-population","code":"denominator","display":"Denominator"}]},"count":1},{"code":{"coding":[{"system":"http://terminology.hl7.org/CodeSystem/measure-population","code":"denominator-exclusion","display":"Denominator Exclusion"}]},"count":0},{"code":{"coding":[{"system":"http://terminology.hl7.org/CodeSystem/measure-population","code":"numerator","display":"Numerator"}]},"count":0},{"code":{"coding":[{"system":"http://terminology.hl7.org/CodeSystem/measure-population","code":"denominator-exception","display":"Denominator Exception"}]},"count":1}]}],"evaluatedResource":[{"reference":"Patient/afdeaa75-d332-40f2-9b30-0b6ddf7e7c14"},{"reference":"Encounter/encounter-to-screen-for-blood-pressure-d1ae"},{"reference":"Observation/blood-pressure-1"},{"reference":"ServiceRequest/follow-up-2-3-months-finding-0d6d"},{"reference":"Coverage/Coverage-1"},{"reference":"Organization/Org-123456"},{"reference":"Practitioner/practitioner-123456"}]},"request":{"method":"PUT","url":"MeasureReport/2960c1ab-fb39-4918-88c9-d71be482f985"}}]}