{"resourceType":"Bundle","id":"tests-2c7de2e3-0aa0-4d6b-bc08-f709d40dfbc1-bundle","type":"transaction","entry":[{"fullUrl":"https://madie.cms.gov/Patient/2c7de2e3-0aa0-4d6b-bc08-f709d40dfbc1","resource":{"resourceType":"Patient","id":"2c7de2e3-0aa0-4d6b-bc08-f709d40dfbc1","meta":{"profile":["http://hl7.org/fhir/us/qicore/StructureDefinition/qicore-patient"]},"extension":[{"url":"http://hl7.org/fhir/us/core/StructureDefinition/us-core-race","extension":[{"url":"ombCategory","valueCoding":{"system":"urn:oid:2.16.840.1.113883.6.238","code":"2106-3","display":"White"}},{"url":"text","valueString":"White"}]},{"url":"http://hl7.org/fhir/us/core/StructureDefinition/us-core-ethnicity","extension":[{"url":"ombCategory","valueCoding":{"system":"urn:oid:2.16.840.1.113883.6.238","code":"2186-5","display":"Not Hispanic or Latino"}},{"url":"text","valueString":"Not Hispanic or Latino"}]}],"identifier":[{"type":{"coding":[{"system":"http://terminology.hl7.org/CodeSystem/v2-0203","code":"MR"}]},"system":"https://bonnie-fhir.healthit.gov/","value":"630307cc0968f8012247860a"}],"name":[{"family":"NUMERPopMultiStrat1Pass","given":["DXandAssessmentsWithinMAP"]}],"gender":"female","birthDate":"2012-01-01"},"request":{"method":"PUT","url":"Patient/2c7de2e3-0aa0-4d6b-bc08-f709d40dfbc1"}},{"fullUrl":"https://madie.cms.gov/Encounter/846816468613163156","resource":{"resourceType":"Encounter","id":"45df23f8-d499-49bc-919a-53303558a4a4","meta":{"profile":["http://hl7.org/fhir/us/qicore/StructureDefinition/qicore-encounter"]},"status":"finished","class":{"system":"http://terminology.hl7.org/CodeSystem/v3-ActCode","code":"AMB","display":"ambulatory"},"type":[{"coding":[{"system":"http://www.ama-assn.org/go/cpt","version":"2024","code":"90791"}]}],"subject":{"reference":"Patient/2c7de2e3-0aa0-4d6b-bc08-f709d40dfbc1"},"period":{"start":"2024-02-25T14:30:00+00:00","end":"2024-02-25T14:50:00+00:00"},"length":{"value":0,"unit":"days"}},"request":{"method":"PUT","url":"Encounter/45df23f8-d499-49bc-919a-53303558a4a4"}},{"fullUrl":"https://madie.cms.gov/Observation/98778613516461352131315","resource":{"resourceType":"Observation","id":"f2a64aef-2554-4deb-af52-07933303c838","meta":{"profile":["http://hl7.org/fhir/us/qicore/StructureDefinition/qicore-observation"]},"status":"final","category":[{"coding":[{"system":"http://terminology.hl7.org/CodeSystem/observation-category","code":"survey","display":"Survey"}]}],"code":{"coding":[{"system":"http://loinc.org","version":"2.76","code":"44261-6"}]},"subject":{"reference":"Patient/2c7de2e3-0aa0-4d6b-bc08-f709d40dfbc1"},"effectiveDateTime":"2024-02-25T14:35:00+00:00","valueInteger":10},"request":{"method":"PUT","url":"Observation/f2a64aef-2554-4deb-af52-07933303c838"}},{"fullUrl":"https://madie.cms.gov/Observation/784651651684135131313","resource":{"resourceType":"Observation","id":"a2fd640b-0c82-41a6-828e-e283fff3828f","meta":{"profile":["http://hl7.org/fhir/us/qicore/StructureDefinition/qicore-observation"]},"status":"final","category":[{"coding":[{"system":"http://terminology.hl7.org/CodeSystem/observation-category","code":"survey","display":"Survey"}]}],"code":{"coding":[{"system":"http://loinc.org","version":"2.76","code":"44261-6"}]},"subject":{"reference":"Patient/2c7de2e3-0aa0-4d6b-bc08-f709d40dfbc1"},"effectiveDateTime":"2025-02-19T14:30:00+00:00","valueInteger":3},"request":{"method":"PUT","url":"Observation/a2fd640b-0c82-41a6-828e-e283fff3828f"}},{"fullUrl":"https://madie.cms.gov/Condition/18961651646466486545","resource":{"resourceType":"Condition","id":"eed534d3-b397-4519-94f5-4c12a44950e5","meta":{"profile":["http://hl7.org/fhir/us/qicore/StructureDefinition/qicore-condition"]},"clinicalStatus":{"coding":[{"system":"http://terminology.hl7.org/CodeSystem/condition-clinical","code":"active","display":"active"}]},"verificationStatus":{"coding":[{"system":"http://terminology.hl7.org/CodeSystem/condition-ver-status","code":"confirmed"}]},"category":[{"coding":[{"system":"http://terminology.hl7.org/CodeSystem/condition-category","code":"problem-list-item","display":"Problem List Item"}]}],"code":{"coding":[{"system":"http://hl7.org/fhir/sid/icd-10-cm","version":"2024","code":"F32.9"}]},"subject":{"reference":"Patient/2c7de2e3-0aa0-4d6b-bc08-f709d40dfbc1"},"onsetDateTime":"2024-02-25T14:35:00+00:00"},"request":{"method":"PUT","url":"Condition/eed534d3-b397-4519-94f5-4c12a44950e5"}},{"fullUrl":"https://madie.cms.gov/Coverage/8974651498153161","resource":{"resourceType":"Coverage","id":"c2ff4ed9-65d2-4912-9755-f26157e2afcc","meta":{"profile":["http://hl7.org/fhir/us/qicore/StructureDefinition/qicore-coverage"]},"identifier":[{"system":"http://benefitsinc.com/certificate","value":"12345"}],"status":"active","type":{"coding":[{"system":"https://nahdo.org/sopt","version":"9.2","code":"59","display":"Other Private Insurance"}]},"beneficiary":{"reference":"Patient/2c7de2e3-0aa0-4d6b-bc08-f709d40dfbc1"},"dependent":"0","relationship":{"coding":[{"system":"http://terminology.hl7.org/CodeSystem/subscriber-relationship","code":"self"}]},"period":{"start":"2012-05-23","end":"2013-05-23"},"payor":[{"reference":"Organization/9e9b3f13-a353-4173-b29b-947d6f1f2031"}],"order":9},"request":{"method":"PUT","url":"Coverage/c2ff4ed9-65d2-4912-9755-f26157e2afcc"}},{"fullUrl":"https://madie.cms.gov/Organization/98461351684651","resource":{"resourceType":"Organization","id":"9e9b3f13-a353-4173-b29b-947d6f1f2031","meta":{"profile":["http://hl7.org/fhir/us/qicore/StructureDefinition/qicore-organization"]},"identifier":[{"use":"temp","system":"http://terminology.hl7.org/NamingSystem/USEIN","value":"48915164351354"}],"active":true,"type":[{"coding":[{"system":"http://terminology.hl7.org/CodeSystem/organization-type","code":"team","display":"Organizational team"}]}],"name":"Good Healthcare, LLC","telecom":[{"system":"phone","value":"(+1) 901-683-7777"},{"system":"fax","value":"(+1) 901-683-6622"},{"system":"email","value":"BetterYourHealth@GoodHealthcare.com"}],"address":[{"line":["3651 Wentrow Blvd, Suite 227"],"city":"Germantown","state":"TN","postalCode":"38138","country":"USA"}]},"request":{"method":"PUT","url":"Organization/9e9b3f13-a353-4173-b29b-947d6f1f2031"}},{"fullUrl":"https://madie.cms.gov/MeasureReport/d565be91-fa64-4231-8430-08b3763a1cd5","resource":{"resourceType":"MeasureReport","id":"d565be91-fa64-4231-8430-08b3763a1cd5","meta":{"profile":["http://hl7.org/fhir/us/cqfmeasures/StructureDefinition/test-case-cqfm"]},"contained":[{"resourceType":"Parameters","id":"5aabbe14-045b-4611-9698-d40a38480c51-parameters","parameter":[{"name":"subject","valueString":"2c7de2e3-0aa0-4d6b-bc08-f709d40dfbc1"}]}],"extension":[{"url":"http://hl7.org/fhir/us/cqfmeasures/StructureDefinition/cqfm-inputParameters","valueReference":{"reference":"#5aabbe14-045b-4611-9698-d40a38480c51-parameters"}},{"url":"http://hl7.org/fhir/us/cqfmeasures/StructureDefinition/cqfm-testCaseDescription","valueMarkdown":"Patient is 12 years old and has a Major Depression Dx, an encounter with PHQ-9>9 during Denom ID period and a PHQ-9<5 during MAP. Patient passes num and falls into strat 1."}],"modifierExtension":[{"url":"http://hl7.org/fhir/us/cqfmeasures/StructureDefinition/cqfm-isTestCase","valueBoolean":true}],"status":"complete","type":"individual","measure":"https://madie.cms.gov/Measure/DepressionRemissionatTwelveMonthsFHIR","period":{"start":"2025-01-01","end":"2025-12-31"},"group":[{"population":[{"code":{"coding":[{"system":"http://terminology.hl7.org/CodeSystem/measure-population","code":"initial-population","display":"Initial Population"}]},"count":1},{"code":{"coding":[{"system":"http://terminology.hl7.org/CodeSystem/measure-population","code":"denominator","display":"Denominator"}]},"count":1},{"code":{"coding":[{"system":"http://terminology.hl7.org/CodeSystem/measure-population","code":"denominator-exclusion","display":"Denominator Exclusion"}]},"count":0},{"code":{"coding":[{"system":"http://terminology.hl7.org/CodeSystem/measure-population","code":"numerator","display":"Numerator"}]},"count":1}]}]},"request":{"method":"PUT","url":"MeasureReport/d565be91-fa64-4231-8430-08b3763a1cd5"}}]}