{"resourceType":"Bundle","id":"tests-7b76e67e-89ec-4ce8-a6e0-2d16b9e4e45b-bundle","type":"transaction","entry":[{"fullUrl":"https://madie.cms.gov/Patient/7b76e67e-89ec-4ce8-a6e0-2d16b9e4e45b","resource":{"resourceType":"Patient","id":"7b76e67e-89ec-4ce8-a6e0-2d16b9e4e45b","meta":{"profile":["http://hl7.org/fhir/us/qicore/StructureDefinition/qicore-patient"]},"extension":[{"url":"http://hl7.org/fhir/us/core/StructureDefinition/us-core-race","extension":[{"url":"ombCategory","valueCoding":{"system":"urn:oid:2.16.840.1.113883.6.238","code":"2106-3","display":"White"}},{"url":"text","valueString":"White"}]},{"url":"http://hl7.org/fhir/us/core/StructureDefinition/us-core-ethnicity","extension":[{"url":"ombCategory","valueCoding":{"system":"urn:oid:2.16.840.1.113883.6.238","code":"2186-5","display":"Not Hispanic or Latino"}},{"url":"text","valueString":"Not Hispanic or Latino"}]}],"identifier":[{"type":{"coding":[{"system":"http://terminology.hl7.org/CodeSystem/v2-0203","code":"MR"}]},"system":"https://bonnie-fhir.healthit.gov/","value":"630307c20968f801224779a0"}],"name":[{"family":"IPPPopStrat2Fail","given":["NoDxDepressDuringIdPeriod"]}],"gender":"female","birthDate":"1999-01-01"},"request":{"method":"PUT","url":"Patient/7b76e67e-89ec-4ce8-a6e0-2d16b9e4e45b"}},{"fullUrl":"https://madie.cms.gov/Encounter/Encounter-846816468613163156","resource":{"resourceType":"Encounter","id":"Encounter-846816468613163156","meta":{"profile":["http://hl7.org/fhir/us/qicore/StructureDefinition/qicore-encounter"]},"status":"finished","class":{"system":"http://www.ama-assn.org/go/cpt","version":"2023","code":"99205","display":"Office or other outpatient visit for the evaluation and management of a new patient, which requires a medically appropriate history and/or examination and high level of medical decision making. When using time for code selection, 60-74 minutes of total time is spent on the date of the encounter."},"type":[{"coding":[{"system":"http://www.ama-assn.org/go/cpt","version":"2023","code":"90791"}]}],"subject":{"reference":"Patient/7b76e67e-89ec-4ce8-a6e0-2d16b9e4e45b"},"period":{"start":"2024-10-31T14:35:00+00:00","end":"2024-10-31T14:45:00+00:00"},"length":{"value":0.0,"unit":"days"}},"request":{"method":"PUT","url":"Encounter/Encounter-846816468613163156"}},{"fullUrl":"https://madie.cms.gov/Observation/Observation-98778613516461352131315","resource":{"resourceType":"Observation","id":"Observation-98778613516461352131315","meta":{"profile":["http://hl7.org/fhir/us/qicore/StructureDefinition/qicore-observation"]},"status":"final","category":[{"coding":[{"system":"http://terminology.hl7.org/CodeSystem/observation-category","code":"survey","display":"Survey"}]}],"code":{"coding":[{"system":"http://loinc.org","version":"2.73","code":"44261-6"}]},"subject":{"reference":"Patient/7b76e67e-89ec-4ce8-a6e0-2d16b9e4e45b"},"effectiveDateTime":"2024-10-31T14:35:00+00:00","valueInteger":10},"request":{"method":"PUT","url":"Observation/Observation-98778613516461352131315"}},{"fullUrl":"https://madie.cms.gov/MeasureReport/da340c1a-fff4-495c-ab9a-047562b6a1ac","resource":{"resourceType":"MeasureReport","id":"da340c1a-fff4-495c-ab9a-047562b6a1ac","meta":{"profile":["http://hl7.org/fhir/us/cqfmeasures/StructureDefinition/test-case-cqfm"]},"contained":[{"resourceType":"Parameters","id":"f0006879-e975-4354-b3b1-1848bad9bcec-parameters","parameter":[{"name":"subject","valueString":"7b76e67e-89ec-4ce8-a6e0-2d16b9e4e45b"}]}],"extension":[{"url":"http://hl7.org/fhir/us/cqfmeasures/StructureDefinition/cqfm-inputParameters","valueReference":{"reference":"#f0006879-e975-4354-b3b1-1848bad9bcec-parameters"}},{"url":"http://hl7.org/fhir/us/cqfmeasures/StructureDefinition/cqfm-testCaseDescription","valueMarkdown":"Patient is 25 and did not have a Major Depression or Dysthymia diagnosis during denom ID period. Patient should not be initial population.  "}],"modifierExtension":[{"url":"http://hl7.org/fhir/us/cqfmeasures/StructureDefinition/cqfm-isTestCase","valueBoolean":true}],"status":"complete","type":"individual","measure":"https://madie.cms.gov/Measure/DepressionRemissionatTwelveMonthsFHIR","period":{"start":"2025-01-01","end":"2025-12-31"},"evaluatedResource":[{"reference":"Patient/7b76e67e-89ec-4ce8-a6e0-2d16b9e4e45b"},{"reference":"Encounter/Encounter-846816468613163156"},{"reference":"Observation/Observation-98778613516461352131315"}]},"request":{"method":"PUT","url":"MeasureReport/da340c1a-fff4-495c-ab9a-047562b6a1ac"}}]}