{"resourceType":"Bundle","id":"tests-01083d96-9f99-4138-824d-f4a0eab21f75-bundle","type":"transaction","entry":[{"fullUrl":"https://madie.cms.gov/Patient/01083d96-9f99-4138-824d-f4a0eab21f75","resource":{"resourceType":"Patient","id":"01083d96-9f99-4138-824d-f4a0eab21f75","meta":{"profile":["http://hl7.org/fhir/us/qicore/StructureDefinition/qicore-patient"]},"extension":[{"url":"http://hl7.org/fhir/us/core/StructureDefinition/us-core-race","extension":[{"url":"ombCategory","valueCoding":{"system":"urn:oid:2.16.840.1.113883.6.238","code":"2106-3","display":"White"}},{"url":"text","valueString":"White"}]},{"url":"http://hl7.org/fhir/us/core/StructureDefinition/us-core-ethnicity","extension":[{"url":"ombCategory","valueCoding":{"system":"urn:oid:2.16.840.1.113883.6.238","code":"2186-5","display":"Not Hispanic or Latino"}},{"url":"text","valueString":"Not Hispanic or Latino"}]}],"identifier":[{"type":{"coding":[{"system":"http://terminology.hl7.org/CodeSystem/v2-0203","code":"MR"}]},"system":"https://bonnie-fhir.healthit.gov/","value":"630307cb0968f801224784b8"}],"name":[{"family":"NUMERPopStrat1Fail","given":["SecondPHQ9OutofRange"]}],"gender":"other","birthDate":"2012-01-01"},"request":{"method":"PUT","url":"Patient/01083d96-9f99-4138-824d-f4a0eab21f75"}},{"fullUrl":"https://madie.cms.gov/Encounter/Encounter-846816468613163156","resource":{"resourceType":"Encounter","id":"Encounter-846816468613163156","meta":{"profile":["http://hl7.org/fhir/us/qicore/StructureDefinition/qicore-encounter"]},"status":"finished","class":{"system":"http://terminology.hl7.org/CodeSystem/v3-ActCode","code":"AMB","display":"ambulatory"},"type":[{"coding":[{"system":"http://www.ama-assn.org/go/cpt","version":"2023","code":"90791"}]}],"subject":{"reference":"Patient/01083d96-9f99-4138-824d-f4a0eab21f75"},"period":{"start":"2024-02-25T14:30:00+00:00","end":"2024-02-25T14:50:00+00:00"},"length":{"value":0,"unit":"days"}},"request":{"method":"PUT","url":"Encounter/Encounter-846816468613163156"}},{"fullUrl":"https://madie.cms.gov/Observation/Observation-98778613516461352131315","resource":{"resourceType":"Observation","id":"Observation-98778613516461352131315","meta":{"profile":["http://hl7.org/fhir/us/qicore/StructureDefinition/qicore-observation"]},"status":"final","category":[{"coding":[{"system":"http://terminology.hl7.org/CodeSystem/observation-category","code":"survey","display":"Survey"}]}],"code":{"coding":[{"system":"http://loinc.org","version":"2.73","code":"44261-6"}]},"subject":{"reference":"Patient/01083d96-9f99-4138-824d-f4a0eab21f75"},"effectiveDateTime":"2024-02-25T14:35:00+00:00","valueInteger":10},"request":{"method":"PUT","url":"Observation/Observation-98778613516461352131315"}},{"fullUrl":"https://madie.cms.gov/Observation/Observation-784651651684135131313","resource":{"resourceType":"Observation","id":"Observation-18961651646466486545","meta":{"profile":["http://hl7.org/fhir/us/qicore/StructureDefinition/qicore-observation"]},"status":"final","category":[{"coding":[{"system":"http://terminology.hl7.org/CodeSystem/observation-category","code":"survey","display":"Survey"}]}],"code":{"coding":[{"system":"http://loinc.org","version":"2.73","code":"44261-6"}]},"subject":{"reference":"Patient/01083d96-9f99-4138-824d-f4a0eab21f75"},"effectiveDateTime":"2025-02-19T14:30:00+00:00","valueInteger":300},"request":{"method":"PUT","url":"Observation/Observation-18961651646466486545"}},{"fullUrl":"https://madie.cms.gov/Condition/Condition-18961651646466486545","resource":{"resourceType":"Condition","id":"Condition-18961651646466486545","meta":{"profile":["http://hl7.org/fhir/us/qicore/StructureDefinition/qicore-condition"]},"clinicalStatus":{"coding":[{"system":"http://terminology.hl7.org/CodeSystem/condition-clinical","code":"active","display":"active"}]},"verificationStatus":{"coding":[{"system":"http://terminology.hl7.org/CodeSystem/condition-ver-status","code":"confirmed"}]},"category":[{"coding":[{"system":"http://terminology.hl7.org/CodeSystem/condition-category","code":"problem-list-item","display":"Problem List Item"}]}],"code":{"coding":[{"system":"http://hl7.org/fhir/sid/icd-10-cm","version":"2023","code":"F32.9"}]},"subject":{"reference":"Patient/01083d96-9f99-4138-824d-f4a0eab21f75"},"onsetDateTime":"2024-02-25T14:35:00+00:00"},"request":{"method":"PUT","url":"Condition/Condition-18961651646466486545"}},{"fullUrl":"https://madie.cms.gov/MeasureReport/1556f1e4-b008-4993-a356-65aef29d0659","resource":{"resourceType":"MeasureReport","id":"1556f1e4-b008-4993-a356-65aef29d0659","meta":{"profile":["http://hl7.org/fhir/us/cqfmeasures/StructureDefinition/test-case-cqfm"]},"contained":[{"resourceType":"Parameters","id":"18f7da21-4a11-4dc3-9b59-f8fcd3db262d-parameters","parameter":[{"name":"subject","valueString":"01083d96-9f99-4138-824d-f4a0eab21f75"}]}],"extension":[{"url":"http://hl7.org/fhir/us/cqfmeasures/StructureDefinition/cqfm-inputParameters","valueReference":{"reference":"#18f7da21-4a11-4dc3-9b59-f8fcd3db262d-parameters"}},{"url":"http://hl7.org/fhir/us/cqfmeasures/StructureDefinition/cqfm-testCaseDescription","valueMarkdown":"Patient is 12 years old and has a Major Depression diagnosis and an encounter with PHQ-9>9 during Denom ID period. Patient has an incorrect/non applicable result for the PHQ-9 assessment during the MAP. Patient is in the denom for strat 1. "}],"modifierExtension":[{"url":"http://hl7.org/fhir/us/cqfmeasures/StructureDefinition/cqfm-isTestCase","valueBoolean":true}],"status":"complete","type":"individual","measure":"https://madie.cms.gov/Measure/DepressionRemissionatTwelveMonthsFHIR","period":{"start":"2025-01-01","end":"2025-12-31"},"group":[{"population":[{"code":{"coding":[{"system":"http://terminology.hl7.org/CodeSystem/measure-population","code":"initial-population","display":"Initial Population"}]},"count":1},{"code":{"coding":[{"system":"http://terminology.hl7.org/CodeSystem/measure-population","code":"denominator","display":"Denominator"}]},"count":1},{"code":{"coding":[{"system":"http://terminology.hl7.org/CodeSystem/measure-population","code":"denominator-exclusion","display":"Denominator Exclusion"}]},"count":0},{"code":{"coding":[{"system":"http://terminology.hl7.org/CodeSystem/measure-population","code":"numerator","display":"Numerator"}]},"count":0}]}],"evaluatedResource":[{"reference":"Patient/01083d96-9f99-4138-824d-f4a0eab21f75"},{"reference":"Encounter/Encounter-846816468613163156"},{"reference":"Observation/Observation-98778613516461352131315"},{"reference":"Observation/Observation-784651651684135131313"},{"reference":"Condition/Condition-18961651646466486545"}]},"request":{"method":"PUT","url":"MeasureReport/1556f1e4-b008-4993-a356-65aef29d0659"}}]}