{"resourceType":"Bundle","id":"tests-b0477f12-22e7-4717-9c67-879cd8336308-bundle","type":"transaction","entry":[{"fullUrl":"https://madie.cms.gov/Patient/b0477f12-22e7-4717-9c67-879cd8336308","resource":{"resourceType":"Patient","id":"b0477f12-22e7-4717-9c67-879cd8336308","meta":{"profile":["http://hl7.org/fhir/us/qicore/StructureDefinition/qicore-patient"]},"extension":[{"url":"http://hl7.org/fhir/us/core/StructureDefinition/us-core-race","extension":[{"url":"ombCategory","valueCoding":{"system":"urn:oid:2.16.840.1.113883.6.238","code":"2106-3","display":"White"}},{"url":"text","valueString":"White"}]},{"url":"http://hl7.org/fhir/us/core/StructureDefinition/us-core-ethnicity","extension":[{"url":"ombCategory","valueCoding":{"system":"urn:oid:2.16.840.1.113883.6.238","code":"2186-5","display":"Not Hispanic or Latino"}},{"url":"text","valueString":"Not Hispanic or Latino"}]}],"identifier":[{"type":{"coding":[{"system":"http://terminology.hl7.org/CodeSystem/v2-0203","code":"MR"}]},"system":"https://bonnie-fhir.healthit.gov/","value":"6546841651641616513421"}],"name":[{"family":"DENEXPopStrat1Pass","given":["PallCareDXDuringMP"]}],"gender":"female","birthDate":"2010-01-01"},"request":{"method":"PUT","url":"Patient/b0477f12-22e7-4717-9c67-879cd8336308"}},{"fullUrl":"https://madie.cms.gov/Encounter/Encounter-846816468613163156","resource":{"resourceType":"Encounter","id":"Encounter-846816468613163156","meta":{"profile":["http://hl7.org/fhir/us/qicore/StructureDefinition/qicore-encounter"]},"status":"finished","class":{"system":"http://terminology.hl7.org/CodeSystem/v3-ActCode","code":"AMB","display":"ambulatory"},"type":[{"coding":[{"system":"http://www.ama-assn.org/go/cpt","version":"2023","code":"90791"}]}],"subject":{"reference":"Patient/b0477f12-22e7-4717-9c67-879cd8336308"},"period":{"start":"2024-02-25T14:30:00+00:00","end":"2024-02-25T14:50:00+00:00"},"length":{"value":0,"unit":"days"}},"request":{"method":"PUT","url":"Encounter/Encounter-846816468613163156"}},{"fullUrl":"https://madie.cms.gov/Observation/Observation-98778613516461352131315","resource":{"resourceType":"Observation","id":"Observation-98778613516461352131315","meta":{"profile":["http://hl7.org/fhir/us/qicore/StructureDefinition/qicore-observation"]},"status":"final","category":[{"coding":[{"system":"http://terminology.hl7.org/CodeSystem/observation-category","code":"survey","display":"Survey"}]}],"code":{"coding":[{"system":"http://loinc.org","version":"2.73","code":"44261-6"}]},"subject":{"reference":"Patient/b0477f12-22e7-4717-9c67-879cd8336308"},"effectiveDateTime":"2024-02-25T14:35:00+00:00","valueInteger":10},"request":{"method":"PUT","url":"Observation/Observation-98778613516461352131315"}},{"fullUrl":"https://madie.cms.gov/Observation/Observation-784651651684135131313","resource":{"resourceType":"Observation","id":"Observation-18961651646466486545","meta":{"profile":["http://hl7.org/fhir/us/qicore/StructureDefinition/qicore-observation"]},"status":"final","category":[{"coding":[{"system":"http://terminology.hl7.org/CodeSystem/observation-category","code":"survey","display":"Survey"}]}],"code":{"coding":[{"system":"http://loinc.org","version":"2.73","code":"44261-6"}]},"subject":{"reference":"Patient/b0477f12-22e7-4717-9c67-879cd8336308"},"effectiveDateTime":"2024-02-19T14:30:00+00:00","valueInteger":3},"request":{"method":"PUT","url":"Observation/Observation-18961651646466486545"}},{"fullUrl":"https://madie.cms.gov/Condition/Condition-18961651646466486545","resource":{"resourceType":"Condition","id":"Condition-18961651646466486545","meta":{"profile":["http://hl7.org/fhir/us/qicore/StructureDefinition/qicore-condition"]},"clinicalStatus":{"coding":[{"system":"http://terminology.hl7.org/CodeSystem/condition-clinical","code":"active","display":"active"}]},"verificationStatus":{"coding":[{"system":"http://terminology.hl7.org/CodeSystem/condition-ver-status","code":"confirmed"}]},"category":[{"coding":[{"system":"http://terminology.hl7.org/CodeSystem/condition-category","code":"problem-list-item","display":"Problem List Item"}]}],"code":{"coding":[{"system":"http://hl7.org/fhir/sid/icd-10-cm","version":"2023","code":"F32.9"}]},"subject":{"reference":"Patient/b0477f12-22e7-4717-9c67-879cd8336308"},"onsetDateTime":"2024-02-25T14:35:00+00:00"},"request":{"method":"PUT","url":"Condition/Condition-18961651646466486545"}},{"fullUrl":"https://madie.cms.gov/Condition/18961651646466486546","resource":{"resourceType":"Condition","id":"18961651646466486546","meta":{"profile":["http://hl7.org/fhir/us/qicore/StructureDefinition/qicore-condition"]},"clinicalStatus":{"coding":[{"system":"http://terminology.hl7.org/CodeSystem/condition-clinical","code":"active","display":"active"}]},"verificationStatus":{"coding":[{"system":"http://terminology.hl7.org/CodeSystem/condition-ver-status","code":"confirmed"}]},"category":[{"coding":[{"system":"http://terminology.hl7.org/CodeSystem/condition-category","code":"problem-list-item","display":"Problem List Item"}]}],"code":{"coding":[{"system":"http://hl7.org/fhir/sid/icd-10-cm","version":"2023","code":"Z51.5"}]},"subject":{"reference":"Patient/b0477f12-22e7-4717-9c67-879cd8336308"},"onsetDateTime":"2025-01-25T14:35:00+00:00"},"request":{"method":"PUT","url":"Condition/18961651646466486546"}},{"fullUrl":"https://madie.cms.gov/MeasureReport/be72a9bb-4853-435b-826f-af5d58ebbcd4","resource":{"resourceType":"MeasureReport","id":"be72a9bb-4853-435b-826f-af5d58ebbcd4","meta":{"profile":["http://hl7.org/fhir/us/cqfmeasures/StructureDefinition/test-case-cqfm"]},"contained":[{"resourceType":"Parameters","id":"5699fcb1-8537-4c60-a419-715110f8ba00-parameters","parameter":[{"name":"subject","valueString":"b0477f12-22e7-4717-9c67-879cd8336308"}]}],"extension":[{"url":"http://hl7.org/fhir/us/cqfmeasures/StructureDefinition/cqfm-inputParameters","valueReference":{"reference":"#5699fcb1-8537-4c60-a419-715110f8ba00-parameters"}},{"url":"http://hl7.org/fhir/us/cqfmeasures/StructureDefinition/cqfm-testCaseDescription","valueMarkdown":"Patient is 15 years old and has a Dysthymia DX and PHQ-9>9 during the denom ID period. Patient has palliative care DX before end of MAP Should be in denominator exclusion for Strat 1. "}],"modifierExtension":[{"url":"http://hl7.org/fhir/us/cqfmeasures/StructureDefinition/cqfm-isTestCase","valueBoolean":true}],"status":"complete","type":"individual","measure":"https://madie.cms.gov/Measure/DepressionRemissionatTwelveMonthsFHIR","period":{"start":"2025-01-01","end":"2025-12-31"},"group":[{"population":[{"code":{"coding":[{"system":"http://terminology.hl7.org/CodeSystem/measure-population","code":"initial-population","display":"Initial Population"}]},"count":1},{"code":{"coding":[{"system":"http://terminology.hl7.org/CodeSystem/measure-population","code":"denominator","display":"Denominator"}]},"count":1},{"code":{"coding":[{"system":"http://terminology.hl7.org/CodeSystem/measure-population","code":"denominator-exclusion","display":"Denominator Exclusion"}]},"count":1},{"code":{"coding":[{"system":"http://terminology.hl7.org/CodeSystem/measure-population","code":"numerator","display":"Numerator"}]},"count":0}]}],"evaluatedResource":[{"reference":"Patient/b0477f12-22e7-4717-9c67-879cd8336308"},{"reference":"Encounter/Encounter-846816468613163156"},{"reference":"Observation/Observation-98778613516461352131315"},{"reference":"Observation/Observation-784651651684135131313"},{"reference":"Condition/Condition-18961651646466486545"},{"reference":"Condition/18961651646466486546"}]},"request":{"method":"PUT","url":"MeasureReport/be72a9bb-4853-435b-826f-af5d58ebbcd4"}}]}