{"resourceType":"Bundle","id":"tests-3900270d-e047-4ecf-9b26-7bac7625b328-bundle","type":"transaction","entry":[{"fullUrl":"https://madie.cms.gov/Patient/3900270d-e047-4ecf-9b26-7bac7625b328","resource":{"resourceType":"Patient","id":"3900270d-e047-4ecf-9b26-7bac7625b328","meta":{"profile":["http://hl7.org/fhir/us/qicore/StructureDefinition/qicore-patient"]},"extension":[{"url":"http://hl7.org/fhir/us/core/StructureDefinition/us-core-race","extension":[{"url":"ombCategory","valueCoding":{"system":"urn:oid:2.16.840.1.113883.6.238","code":"2106-3","display":"White"}},{"url":"text","valueString":"White"}]},{"url":"http://hl7.org/fhir/us/core/StructureDefinition/us-core-ethnicity","extension":[{"url":"ombCategory","valueCoding":{"system":"urn:oid:2.16.840.1.113883.6.238","code":"2186-5","display":"Not Hispanic or Latino"}},{"url":"text","valueString":"Not Hispanic or Latino"}]}],"identifier":[{"type":{"coding":[{"system":"http://terminology.hl7.org/CodeSystem/v2-0203","code":"MR"}]},"system":"https://bonnie-fhir.healthit.gov/","value":"6546841651641616513421"}],"name":[{"family":"DENEXPopStrat1Pass","given":["PallCareEncEOSofMP"]}],"gender":"female","birthDate":"2007-01-01"},"request":{"method":"PUT","url":"Patient/3900270d-e047-4ecf-9b26-7bac7625b328"}},{"fullUrl":"https://madie.cms.gov/Encounter/Encounter-846816468613163156","resource":{"resourceType":"Encounter","id":"Encounter-846816468613163156","meta":{"profile":["http://hl7.org/fhir/us/qicore/StructureDefinition/qicore-encounter"]},"status":"finished","class":{"system":"http://terminology.hl7.org/CodeSystem/v3-ActCode","code":"AMB","display":"ambulatory"},"type":[{"coding":[{"system":"http://www.ama-assn.org/go/cpt","version":"2023","code":"90791"}]}],"subject":{"reference":"Patient/3900270d-e047-4ecf-9b26-7bac7625b328"},"period":{"start":"2024-02-25T14:30:00+00:00","end":"2024-02-25T14:50:00+00:00"},"length":{"value":0.0,"unit":"days"}},"request":{"method":"PUT","url":"Encounter/Encounter-846816468613163156"}},{"fullUrl":"https://madie.cms.gov/Observation/Observation-98778613516461352131315","resource":{"resourceType":"Observation","id":"Observation-98778613516461352131315","meta":{"profile":["http://hl7.org/fhir/us/qicore/StructureDefinition/qicore-observation"]},"status":"final","category":[{"coding":[{"system":"http://terminology.hl7.org/CodeSystem/observation-category","code":"survey","display":"Survey"}]}],"code":{"coding":[{"system":"http://loinc.org","version":"2.73","code":"44261-6"}]},"subject":{"reference":"Patient/3900270d-e047-4ecf-9b26-7bac7625b328"},"effectiveDateTime":"2024-02-25T14:35:00+00:00","valueInteger":10},"request":{"method":"PUT","url":"Observation/Observation-98778613516461352131315"}},{"fullUrl":"https://madie.cms.gov/MeasureReport/3beab4d7-66c4-4065-b943-4b8e49faee77","resource":{"resourceType":"MeasureReport","id":"3beab4d7-66c4-4065-b943-4b8e49faee77","meta":{"profile":["http://hl7.org/fhir/us/cqfmeasures/StructureDefinition/test-case-cqfm"]},"contained":[{"resourceType":"Parameters","id":"8107ad88-70bf-41f7-949d-eee996829cdd-parameters","parameter":[{"name":"subject","valueString":"3900270d-e047-4ecf-9b26-7bac7625b328"}]}],"extension":[{"url":"http://hl7.org/fhir/us/cqfmeasures/StructureDefinition/cqfm-inputParameters","valueReference":{"reference":"#8107ad88-70bf-41f7-949d-eee996829cdd-parameters"}},{"url":"http://hl7.org/fhir/us/cqfmeasures/StructureDefinition/cqfm-testCaseDescription","valueMarkdown":"Patient is 17 years old (edge case of stratification 1). Passes IPP for strat 1, fails IPP for strat 2. "}],"modifierExtension":[{"url":"http://hl7.org/fhir/us/cqfmeasures/StructureDefinition/cqfm-isTestCase","valueBoolean":true}],"status":"complete","type":"individual","measure":"https://madie.cms.gov/Measure/DepressionRemissionatTwelveMonthsFHIR","period":{"start":"2025-01-01","end":"2025-12-31"},"evaluatedResource":[{"reference":"Patient/3900270d-e047-4ecf-9b26-7bac7625b328"},{"reference":"Encounter/Encounter-846816468613163156"},{"reference":"Observation/Observation-98778613516461352131315"}]},"request":{"method":"PUT","url":"MeasureReport/3beab4d7-66c4-4065-b943-4b8e49faee77"}}]}