{"resourceType":"Bundle","id":"tests-230e1741-32b1-4d01-8249-84d9cb872af5-bundle","type":"transaction","entry":[{"fullUrl":"https://madie.cms.gov/Patient/230e1741-32b1-4d01-8249-84d9cb872af5","resource":{"resourceType":"Patient","id":"230e1741-32b1-4d01-8249-84d9cb872af5","meta":{"profile":["http://hl7.org/fhir/us/qicore/StructureDefinition/qicore-patient"]},"extension":[{"url":"http://hl7.org/fhir/us/core/StructureDefinition/us-core-race","extension":[{"url":"ombCategory","valueCoding":{"system":"urn:oid:2.16.840.1.113883.6.238","code":"2106-3","display":"White"}},{"url":"text","valueString":"White"}]},{"url":"http://hl7.org/fhir/us/core/StructureDefinition/us-core-ethnicity","extension":[{"url":"ombCategory","valueCoding":{"system":"urn:oid:2.16.840.1.113883.6.238","code":"2186-5","display":"Not Hispanic or Latino"}},{"url":"text","valueString":"Not Hispanic or Latino"}]}],"identifier":[{"type":{"coding":[{"system":"http://terminology.hl7.org/CodeSystem/v2-0203","code":"MR"}]},"system":"https://bonnie-fhir.healthit.gov/","value":"465461646416316451"}],"name":[{"family":"DENEXPopStrat1Fail","given":["HospiceProcedureUnknownStatus"]}],"gender":"female","birthDate":"2010-01-01"},"request":{"method":"PUT","url":"Patient/230e1741-32b1-4d01-8249-84d9cb872af5"}},{"fullUrl":"https://madie.cms.gov/Encounter/846816468613163156","resource":{"resourceType":"Encounter","id":"18b326b4-6aac-45af-bb93-e69ddf839b69","meta":{"profile":["http://hl7.org/fhir/us/qicore/StructureDefinition/qicore-encounter"]},"status":"finished","class":{"system":"http://terminology.hl7.org/CodeSystem/v3-ActCode","code":"AMB","display":"ambulatory"},"type":[{"coding":[{"system":"http://www.ama-assn.org/go/cpt","version":"2024","code":"90791"}]}],"subject":{"reference":"Patient/230e1741-32b1-4d01-8249-84d9cb872af5"},"period":{"start":"2024-02-25T14:30:00+00:00","end":"2024-02-25T14:50:00+00:00"},"length":{"value":0,"unit":"days"}},"request":{"method":"PUT","url":"Encounter/18b326b4-6aac-45af-bb93-e69ddf839b69"}},{"fullUrl":"https://madie.cms.gov/Observation/98778613516461352131315","resource":{"resourceType":"Observation","id":"cb972e35-2d29-4841-8d5a-d84906caad9b","meta":{"profile":["http://hl7.org/fhir/us/qicore/StructureDefinition/qicore-observation"]},"status":"final","category":[{"coding":[{"system":"http://terminology.hl7.org/CodeSystem/observation-category","code":"survey","display":"Survey"}]}],"code":{"coding":[{"system":"http://loinc.org","version":"2.76","code":"44261-6"}]},"subject":{"reference":"Patient/230e1741-32b1-4d01-8249-84d9cb872af5"},"effectiveDateTime":"2024-02-25T14:35:00+00:00","valueInteger":10},"request":{"method":"PUT","url":"Observation/cb972e35-2d29-4841-8d5a-d84906caad9b"}},{"fullUrl":"https://madie.cms.gov/Condition/18961651646466486545","resource":{"resourceType":"Condition","id":"fdad9f46-824a-46a4-a3b5-aa4896e1a2b2","meta":{"profile":["http://hl7.org/fhir/us/qicore/StructureDefinition/qicore-condition"]},"clinicalStatus":{"coding":[{"system":"http://terminology.hl7.org/CodeSystem/condition-clinical","code":"active","display":"active"}]},"verificationStatus":{"coding":[{"system":"http://terminology.hl7.org/CodeSystem/condition-ver-status","code":"confirmed"}]},"category":[{"coding":[{"system":"http://terminology.hl7.org/CodeSystem/condition-category","code":"problem-list-item","display":"Problem List Item"}]}],"code":{"coding":[{"system":"http://hl7.org/fhir/sid/icd-10-cm","version":"2024","code":"F32.9"}]},"subject":{"reference":"Patient/230e1741-32b1-4d01-8249-84d9cb872af5"},"onsetDateTime":"2024-02-25T14:35:00+00:00"},"request":{"method":"PUT","url":"Condition/fdad9f46-824a-46a4-a3b5-aa4896e1a2b2"}},{"fullUrl":"https://madie.cms.gov/Procedure/HospiceProcedureInMP","resource":{"resourceType":"Procedure","id":"f62bb567-d683-4883-af6f-172288edf98f","meta":{"profile":["http://hl7.org/fhir/us/qicore/StructureDefinition/qicore-procedure"]},"extension":[{"url":"http://hl7.org/fhir/us/qicore/StructureDefinition/qicore-recorded","valueDateTime":"2025-02-01T08:00:00.000+00:00"}],"status":"unknown","code":{"coding":[{"system":"http://www.nlm.nih.gov/research/umls/hcpcs","version":"2024","code":"G0182","display":"Physician supervision of a patient under a medicare-approved hospice (patient not present) requiring complex and multidisciplinary care modalities involving regular physician development and/or revision of care plans, review of subsequent reports of patient status, review of laboratory and other studies, communication (including telephone calls) with other health care professionals involved in the patient's care, integration of new information into the medical treatment plan and/or adjustment of medical therapy, within a calendar month, 30 minutes or more"}]},"subject":{"reference":"Patient/230e1741-32b1-4d01-8249-84d9cb872af5"},"performedPeriod":{"start":"2025-01-01T08:00:00.000+00:00","end":"2025-02-01T08:15:00.000+00:00"}},"request":{"method":"PUT","url":"Procedure/f62bb567-d683-4883-af6f-172288edf98f"}},{"fullUrl":"https://madie.cms.gov/MeasureReport/074630c4-471e-448c-a275-d7694e0ce1f5","resource":{"resourceType":"MeasureReport","id":"074630c4-471e-448c-a275-d7694e0ce1f5","meta":{"profile":["http://hl7.org/fhir/us/cqfmeasures/StructureDefinition/test-case-cqfm"]},"contained":[{"resourceType":"Parameters","id":"5591e9b0-32db-4833-b0bf-1e8eadc64290-parameters","parameter":[{"name":"subject","valueString":"230e1741-32b1-4d01-8249-84d9cb872af5"}]}],"extension":[{"url":"http://hl7.org/fhir/us/cqfmeasures/StructureDefinition/cqfm-inputParameters","valueReference":{"reference":"#5591e9b0-32db-4833-b0bf-1e8eadc64290-parameters"}},{"url":"http://hl7.org/fhir/us/cqfmeasures/StructureDefinition/cqfm-testCaseDescription","valueMarkdown":"Patient has a Major Depression Dx and PHQ-9 > 9 during the denom ID period. Patient has unknown status for Hospice Procedure during MP. Should not be in denominator exclusion for Strat 1."}],"modifierExtension":[{"url":"http://hl7.org/fhir/us/cqfmeasures/StructureDefinition/cqfm-isTestCase","valueBoolean":true}],"status":"complete","type":"individual","measure":"https://madie.cms.gov/Measure/DepressionRemissionatTwelveMonthsFHIR","period":{"start":"2025-01-01","end":"2025-12-31"},"group":[{"population":[{"code":{"coding":[{"system":"http://terminology.hl7.org/CodeSystem/measure-population","code":"initial-population","display":"Initial Population"}]},"count":1},{"code":{"coding":[{"system":"http://terminology.hl7.org/CodeSystem/measure-population","code":"denominator","display":"Denominator"}]},"count":1},{"code":{"coding":[{"system":"http://terminology.hl7.org/CodeSystem/measure-population","code":"denominator-exclusion","display":"Denominator Exclusion"}]},"count":0},{"code":{"coding":[{"system":"http://terminology.hl7.org/CodeSystem/measure-population","code":"numerator","display":"Numerator"}]},"count":0}]}]},"request":{"method":"PUT","url":"MeasureReport/074630c4-471e-448c-a275-d7694e0ce1f5"}}]}