{
  "resourceType": "Bundle",
  "id": "denexpass-fullbody",
  "type": "transaction",
  "entry": [ {
    "fullUrl": "https://madie.cms.gov/Patient/2990a82a-f129-47e0-8ffe-6fd96132b9d8",
    "resource": {
      "resourceType": "Patient",
      "id": "2990a82a-f129-47e0-8ffe-6fd96132b9d8",
      "meta": {
        "profile": [ "http://hl7.org/fhir/us/core/StructureDefinition/us-core-patient", "http://hl7.org/fhir/us/qicore/StructureDefinition/qicore-patient" ]
      },
      "extension": [ {
        "url": "http://hl7.org/fhir/us/core/StructureDefinition/us-core-race",
        "extension": [ {
          "url": "ombCategory",
          "valueCoding": {
            "system": "urn:oid:2.16.840.1.113883.6.238",
            "code": "2028-9",
            "display": "Asian"
          }
        }, {
          "url": "text",
          "valueString": "Asian"
        } ]
      }, {
        "url": "http://hl7.org/fhir/us/core/StructureDefinition/us-core-ethnicity",
        "extension": [ {
          "url": "ombCategory",
          "valueCoding": {
            "system": "urn:oid:2.16.840.1.113883.6.238",
            "code": "2135-2",
            "display": "Hispanic or Latino"
          }
        }, {
          "url": "text",
          "valueString": "Hispanic or Latino"
        } ]
      } ],
      "identifier": [ {
        "system": "http://hospital.smarthealthit.org",
        "value": "999999995"
      } ],
      "name": [ {
        "family": "FullBody",
        "given": [ "DENEXPass" ]
      } ],
      "gender": "female",
      "birthDate": "1987-06-12"
    },
    "request": {
      "method": "PUT",
      "url": "Patient/2990a82a-f129-47e0-8ffe-6fd96132b9d8"
    }
  }, {
    "fullUrl": "https://madie.cms.gov/Encounter/8c8de419-7075-4c73-acb3-6aa4e6b4fd8a",
    "resource": {
      "resourceType": "Encounter",
      "id": "8c8de419-7075-4c73-acb3-6aa4e6b4fd8a",
      "meta": {
        "profile": [ "http://hl7.org/fhir/us/qicore/StructureDefinition/qicore-encounter" ]
      },
      "status": "finished",
      "class": {
        "system": "http://terminology.hl7.org/CodeSystem/v3-ActCode",
        "code": "IMP",
        "display": "inpatient encounter"
      },
      "type": [ {
        "coding": [ {
          "system": "http://snomed.info/sct",
          "code": "183452005",
          "display": "Emergency hospital admission"
        } ]
      } ],
      "subject": {
        "reference": "Patient/2990a82a-f129-47e0-8ffe-6fd96132b9d8"
      },
      "period": {
        "start": "2026-01-01T00:00:00.000Z",
        "end": "2026-01-03T01:00:00.000Z"
      }
    },
    "request": {
      "method": "PUT",
      "url": "Encounter/8c8de419-7075-4c73-acb3-6aa4e6b4fd8a"
    }
  }, {
    "fullUrl": "https://madie.cms.gov/Observation/be0a4e90-f51a-409c-afae-7b2a641c4b83",
    "resource": {
      "resourceType": "Observation",
      "id": "be0a4e90-f51a-409c-afae-7b2a641c4b83",
      "meta": {
        "profile": [ "http://hl7.org/fhir/us/qicore/StructureDefinition/qicore-observation" ]
      },
      "status": "final",
      "category": [ {
        "coding": [ {
          "system": "http://terminology.hl7.org/CodeSystem/observation-category",
          "code": "imaging",
          "display": "Imaging"
        } ]
      } ],
      "code": {
        "coding": [ {
          "system": "http://loinc.org",
          "code": "96914-7",
          "display": "CT dose and image quality category"
        } ],
        "text": "CT dose and image quality category"
      },
      "subject": {
        "reference": "Patient/2990a82a-f129-47e0-8ffe-6fd96132b9d8"
      },
      "encounter": {
        "reference": "Encounter/8c8de419-7075-4c73-acb3-6aa4e6b4fd8a"
      },
      "effectiveDateTime": "2026-01-02T00:00:00.000Z",
      "valueCodeableConcept": {
        "coding": [ {
          "system": "http://loinc.org",
          "code": "LA31771-1",
          "display": "Full Body"
        } ]
      },
      "component": [ {
        "code": {
          "coding": [ {
            "system": "http://loinc.org",
            "code": "96912-1",
            "display": "Calculated CT global noise"
          } ]
        },
        "valueQuantity": {
          "value": 63,
          "unit": "[hnsf'U]",
          "system": "http://unitsofmeasure.org",
          "code": "[hnsf'U]"
        }
      }, {
        "code": {
          "coding": [ {
            "system": "http://loinc.org",
            "code": "96913-9",
            "display": "Calculated CT size-adjusted dose"
          } ]
        },
        "valueQuantity": {
          "value": 597,
          "unit": "mGy.cm",
          "system": "http://unitsofmeasure.org",
          "code": "mGy.cm"
        }
      } ]
    },
    "request": {
      "method": "PUT",
      "url": "Observation/be0a4e90-f51a-409c-afae-7b2a641c4b83"
    }
  }, {
    "fullUrl": "https://madie.cms.gov/MeasureReport/86cb4565-823d-474d-ba14-fe78096a40b1",
    "resource": {
      "resourceType": "MeasureReport",
      "id": "86cb4565-823d-474d-ba14-fe78096a40b1",
      "meta": {
        "profile": [ "http://hl7.org/fhir/us/cqfmeasures/StructureDefinition/test-case-cqfm" ]
      },
      "contained": [ {
        "resourceType": "Parameters",
        "id": "0568f637-1883-4596-8e2e-7c609d32af4e-parameters",
        "parameter": [ {
          "name": "subject",
          "valueString": "2990a82a-f129-47e0-8ffe-6fd96132b9d8"
        } ]
      } ],
      "extension": [ {
        "url": "http://hl7.org/fhir/us/cqfmeasures/StructureDefinition/cqfm-inputParameters",
        "valueReference": {
          "reference": "#0568f637-1883-4596-8e2e-7c609d32af4e-parameters"
        }
      }, {
        "url": "http://hl7.org/fhir/us/cqfmeasures/StructureDefinition/cqfm-testCaseDescription",
        "valueMarkdown": "Patient has FullBody scan which should put them in the denominator exclusion"
      } ],
      "modifierExtension": [ {
        "url": "http://hl7.org/fhir/us/cqfmeasures/StructureDefinition/cqfm-isTestCase",
        "valueBoolean": true
      } ],
      "status": "complete",
      "type": "individual",
      "measure": "https://madie.cms.gov/Measure/AlaraCTIQRFHIR",
      "period": {
        "start": "2026-01-01",
        "end": "2026-12-31"
      },
      "group": [ {
        "population": [ {
          "code": {
            "coding": [ {
              "system": "http://terminology.hl7.org/CodeSystem/measure-population",
              "code": "initial-population",
              "display": "Initial Population"
            } ]
          },
          "count": 1
        }, {
          "code": {
            "coding": [ {
              "system": "http://terminology.hl7.org/CodeSystem/measure-population",
              "code": "denominator",
              "display": "Denominator"
            } ]
          },
          "count": 1
        }, {
          "code": {
            "coding": [ {
              "system": "http://terminology.hl7.org/CodeSystem/measure-population",
              "code": "denominator-exclusion",
              "display": "Denominator Exclusion"
            } ]
          },
          "count": 1
        }, {
          "code": {
            "coding": [ {
              "system": "http://terminology.hl7.org/CodeSystem/measure-population",
              "code": "numerator",
              "display": "Numerator"
            } ]
          },
          "count": 0
        } ]
      } ],
      "evaluatedResource": [ {
        "reference": "Patient/2990a82a-f129-47e0-8ffe-6fd96132b9d8"
      }, {
        "reference": "Encounter/8c8de419-7075-4c73-acb3-6aa4e6b4fd8a"
      }, {
        "reference": "Observation/be0a4e90-f51a-409c-afae-7b2a641c4b83"
      } ]
    },
    "request": {
      "method": "PUT",
      "url": "MeasureReport/86cb4565-823d-474d-ba14-fe78096a40b1"
    }
  } ]
}