{"resourceType":"Bundle","id":"tests-659f9c7b-5c1c-475f-bfcb-77c246fa7a28-bundle","type":"transaction","entry":[{"fullUrl":"https://madie.cms.gov/Patient/659f9c7b-5c1c-475f-bfcb-77c246fa7a28","resource":{"resourceType":"Patient","id":"659f9c7b-5c1c-475f-bfcb-77c246fa7a28","meta":{"profile":["http://hl7.org/fhir/us/qicore/StructureDefinition/qicore-patient"]},"extension":[{"url":"http://hl7.org/fhir/us/core/StructureDefinition/us-core-race","extension":[{"url":"ombCategory","valueCoding":{"system":"urn:oid:2.16.840.1.113883.6.238","code":"2106-3","display":"White","userSelected":true}},{"url":"text","valueString":"White"}]},{"url":"http://hl7.org/fhir/us/core/StructureDefinition/us-core-ethnicity","extension":[{"url":"ombCategory","valueCoding":{"system":"urn:oid:2.16.840.1.113883.6.238","code":"2186-5","display":"Not Hispanic or Latino","userSelected":true}},{"url":"text","valueString":"Not Hispanic or Latino"}]}],"identifier":[{"type":{"coding":[{"system":"http://terminology.hl7.org/CodeSystem/v2-0203","code":"MR"}]},"system":"https://bonnie-fhir.healthit.gov/","value":"62df2a6b0056b6e23ec675a9"}],"name":[{"family":"DENEXCEPPass","given":["MedicalReasonMedicationForAboveNormalBMI"]}],"gender":"unknown","birthDate":"1956-11-07"},"request":{"method":"PUT","url":"Patient/659f9c7b-5c1c-475f-bfcb-77c246fa7a28"}},{"fullUrl":"https://madie.cms.gov/Encounter/encounter-to-evaluate-bmi-533b","resource":{"resourceType":"Encounter","id":"5a1b5dad-459e-411d-8ea0-ef365350ddad","meta":{"profile":["http://hl7.org/fhir/us/qicore/StructureDefinition/qicore-encounter"]},"status":"finished","class":{"system":"http://terminology.hl7.org/CodeSystem/v3-ActCode","code":"AMB","display":"ambulatory"},"type":[{"coding":[{"system":"http://snomed.info/sct","version":"2022-03","code":"10197000","display":"Psychiatric interview and evaluation (procedure)","userSelected":true}]}],"subject":{"reference":"Patient/659f9c7b-5c1c-475f-bfcb-77c246fa7a28"},"period":{"start":"2025-01-01T08:00:00.000+00:00","end":"2025-01-01T08:25:00.000+00:00"}},"request":{"method":"PUT","url":"Encounter/5a1b5dad-459e-411d-8ea0-ef365350ddad"}},{"fullUrl":"https://madie.cms.gov/Observation/body-mass-index-bmi-ratio-534c","resource":{"resourceType":"Observation","id":"3c77ec70-bcf4-4edf-9209-0cb4efd3e608","meta":{"profile":["http://hl7.org/fhir/us/qicore/StructureDefinition/qicore-observationnotdone"]},"extension":[{"url":"http://hl7.org/fhir/us/qicore/StructureDefinition/qicore-notDoneReason","valueCodeableConcept":{"coding":[{"system":"http://snomed.info/sct","code":"105480006","display":"Procedure declined by patient (situation)","userSelected":true}]}}],"status":"cancelled","category":[{"coding":[{"system":"http://terminology.hl7.org/CodeSystem/observation-category","code":"procedure","display":"Procedure"}]}],"code":{"coding":[{"system":"http://loinc.org","code":"39156-5","display":"Body mass index (BMI) [Ratio]","userSelected":true}]},"subject":{"reference":"Patient/659f9c7b-5c1c-475f-bfcb-77c246fa7a28"},"effectiveDateTime":"2025-01-01T08:05:00.000+00:00","issued":"2025-01-01T08:05:00.000+00:00","valueBoolean":true},"request":{"method":"PUT","url":"Observation/3c77ec70-bcf4-4edf-9209-0cb4efd3e608"}},{"fullUrl":"https://madie.cms.gov/MedicationRequest/medications-for-above-normal-bmi-a906","resource":{"resourceType":"MedicationRequest","id":"ac66a3b4-21af-49dc-9b26-7acd0a83ee65","meta":{"profile":["http://hl7.org/fhir/us/qicore/StructureDefinition/qicore-mednotrequested"]},"status":"completed","intent":"order","doNotPerform":true,"medicationCodeableConcept":{"coding":[{"system":"http://www.nlm.nih.gov/research/umls/rxnorm","code":"1112982","display":"phentermine hydrochloride 15 MG Disintegrating Oral Tablet","userSelected":true}]},"subject":{"reference":"Patient/659f9c7b-5c1c-475f-bfcb-77c246fa7a28"},"authoredOn":"2025-01-01T08:10:00.000+00:00","requester":{"reference":"Practitioner/example","display":"Patrick Pump"},"reasonCode":[{"coding":[{"system":"http://snomed.info/sct","code":"62014003","display":"Adverse reaction caused by drug (disorder)","userSelected":true}]}]},"request":{"method":"PUT","url":"MedicationRequest/ac66a3b4-21af-49dc-9b26-7acd0a83ee65"}},{"fullUrl":"https://madie.cms.gov/Coverage/1","resource":{"resourceType":"Coverage","id":"31eb291c-3595-4111-a266-14180c0d3f35","meta":{"profile":["http://hl7.org/fhir/us/qicore/StructureDefinition/qicore-coverage"]},"status":"active","beneficiary":{"reference":"Patient/659f9c7b-5c1c-475f-bfcb-77c246fa7a28"},"payor":[{"reference":"Organization/aeb2c6be-6577-4bba-a6b6-6eab95111f1b"}]},"request":{"method":"PUT","url":"Coverage/31eb291c-3595-4111-a266-14180c0d3f35"}},{"fullUrl":"https://madie.cms.gov/Organization/123456","resource":{"resourceType":"Organization","id":"aeb2c6be-6577-4bba-a6b6-6eab95111f1b","meta":{"profile":["http://hl7.org/fhir/us/qicore/StructureDefinition/qicore-organization"]},"identifier":[{"use":"temp","system":"urn:oid:2.16.840.1.113883.4.4","value":"21-3259825"}],"active":true,"type":[{"coding":[{"system":"http://terminology.hl7.org/CodeSystem/organization-type","code":"pay","display":"Payer"}]}],"name":"Blue Cross Blue Shield of Texas","telecom":[{"system":"phone","value":"(+1) 972-766-6900"}],"address":[{"use":"billing","type":"postal","line":["P.O. Box 660044"],"city":"Dallas","state":"TX","postalCode":"75266-0044","country":"USA"}]},"request":{"method":"PUT","url":"Organization/aeb2c6be-6577-4bba-a6b6-6eab95111f1b"}},{"fullUrl":"https://madie.cms.gov/Practitioner/practitioner-123456","resource":{"resourceType":"Practitioner","id":"e34e043b-f6d2-4a88-a826-70f07f4b7682","meta":{"profile":["http://hl7.org/fhir/us/qicore/StructureDefinition/qicore-practitioner"]},"identifier":[{"system":"http://hl7.org/fhir/sid/us-npi","value":"123456"}],"name":[{"family":"Evil","prefix":["Dr"]}]},"request":{"method":"PUT","url":"Practitioner/e34e043b-f6d2-4a88-a826-70f07f4b7682"}},{"fullUrl":"https://madie.cms.gov/MeasureReport/e7aaa42a-e0a4-432e-9f24-b8b01c2a8aab","resource":{"resourceType":"MeasureReport","id":"e7aaa42a-e0a4-432e-9f24-b8b01c2a8aab","meta":{"profile":["http://hl7.org/fhir/us/cqfmeasures/StructureDefinition/test-case-cqfm"]},"contained":[{"resourceType":"Parameters","id":"5fc4df1d-c1da-43e0-ac0e-6c6f302cb041-parameters","parameter":[{"name":"subject","valueString":"659f9c7b-5c1c-475f-bfcb-77c246fa7a28"}]}],"extension":[{"url":"http://hl7.org/fhir/us/cqfmeasures/StructureDefinition/cqfm-inputParameters","valueReference":{"reference":"#5fc4df1d-c1da-43e0-ac0e-6c6f302cb041-parameters"}},{"url":"http://hl7.org/fhir/us/cqfmeasures/StructureDefinition/cqfm-testCaseDescription","valueMarkdown":"Enc during MP, no BMI or medication intervention as pat refused"}],"modifierExtension":[{"url":"http://hl7.org/fhir/us/cqfmeasures/StructureDefinition/cqfm-isTestCase","valueBoolean":true}],"status":"complete","type":"individual","measure":"https://madie.cms.gov/Measure/PCSBMIScreenAndFollowUpFHIR","period":{"start":"2025-01-01","end":"2025-12-31"},"group":[{"population":[{"code":{"coding":[{"system":"http://terminology.hl7.org/CodeSystem/measure-population","code":"initial-population","display":"Initial Population"}]},"count":1},{"code":{"coding":[{"system":"http://terminology.hl7.org/CodeSystem/measure-population","code":"denominator","display":"Denominator"}]},"count":1},{"code":{"coding":[{"system":"http://terminology.hl7.org/CodeSystem/measure-population","code":"denominator-exclusion","display":"Denominator Exclusion"}]},"count":0},{"code":{"coding":[{"system":"http://terminology.hl7.org/CodeSystem/measure-population","code":"denominator-exception","display":"Denominator Exception"}]},"count":1},{"code":{"coding":[{"system":"http://terminology.hl7.org/CodeSystem/measure-population","code":"numerator","display":"Numerator"}]},"count":0}]}]},"request":{"method":"PUT","url":"MeasureReport/e7aaa42a-e0a4-432e-9f24-b8b01c2a8aab"}}]}