{"resourceType":"Bundle","id":"tests-b98fcec4-23a5-41bd-82d8-bad2f50ffc9c-bundle","type":"transaction","entry":[{"fullUrl":"https://madie.cms.gov/Patient/b98fcec4-23a5-41bd-82d8-bad2f50ffc9c","resource":{"resourceType":"Patient","id":"b98fcec4-23a5-41bd-82d8-bad2f50ffc9c","meta":{"profile":["http://hl7.org/fhir/us/qicore/StructureDefinition/qicore-patient"]},"extension":[{"url":"http://hl7.org/fhir/us/core/StructureDefinition/us-core-race","extension":[{"url":"ombCategory","valueCoding":{"system":"urn:oid:2.16.840.1.113883.6.238","code":"2106-3","display":"White","userSelected":true}},{"url":"text","valueString":"White"}]},{"url":"http://hl7.org/fhir/us/core/StructureDefinition/us-core-ethnicity","extension":[{"url":"ombCategory","valueCoding":{"system":"urn:oid:2.16.840.1.113883.6.238","code":"2186-5","display":"Not Hispanic or Latino","userSelected":true}},{"url":"text","valueString":"Not Hispanic or Latino"}]}],"identifier":[{"type":{"coding":[{"system":"http://terminology.hl7.org/CodeSystem/v2-0203","code":"MR"}]},"system":"https://bonnie-fhir.healthit.gov/","value":"62fbd755bf5132f90ee35d2c"}],"name":[{"family":"DENEXCEPPass","given":["NoFollowUpPlanMedicalReasonMedicationForBelowNormalBMI"]}],"gender":"unknown","birthDate":"1956-11-07"},"request":{"method":"PUT","url":"Patient/b98fcec4-23a5-41bd-82d8-bad2f50ffc9c"}},{"fullUrl":"https://madie.cms.gov/Encounter/encounter-to-evaluate-bmi-533b","resource":{"resourceType":"Encounter","id":"4ee52b54-a64c-498e-82de-058907fa9e59","meta":{"profile":["http://hl7.org/fhir/us/qicore/StructureDefinition/qicore-encounter"]},"status":"finished","class":{"system":"http://terminology.hl7.org/CodeSystem/v3-ActCode","code":"AMB","display":"ambulatory"},"type":[{"coding":[{"system":"http://snomed.info/sct","version":"2022-03","code":"78318003","display":"History and physical examination, annual for health maintenance (procedure)","userSelected":true}]}],"subject":{"reference":"Patient/b98fcec4-23a5-41bd-82d8-bad2f50ffc9c"},"period":{"start":"2025-01-01T00:00:00.000+00:00","end":"2025-01-01T00:30:00.000+00:00"}},"request":{"method":"PUT","url":"Encounter/4ee52b54-a64c-498e-82de-058907fa9e59"}},{"fullUrl":"https://madie.cms.gov/Observation/body-mass-index-bmi-ratio-534c","resource":{"resourceType":"Observation","id":"db1cfb45-c502-4364-9021-3df3e51182f4","meta":{"profile":["http://hl7.org/fhir/us/qicore/StructureDefinition/qicore-observation"]},"status":"final","category":[{"coding":[{"system":"http://terminology.hl7.org/CodeSystem/observation-category","code":"procedure","display":"Procedure"}]}],"code":{"coding":[{"system":"http://loinc.org","code":"39156-5","display":"Body mass index (BMI) [Ratio]","userSelected":true}]},"subject":{"reference":"Patient/b98fcec4-23a5-41bd-82d8-bad2f50ffc9c"},"effectiveDateTime":"2025-01-01T00:01:00.000+00:00","valueQuantity":{"value":18.4,"unit":"kg/m2"}},"request":{"method":"PUT","url":"Observation/db1cfb45-c502-4364-9021-3df3e51182f4"}},{"fullUrl":"https://madie.cms.gov/MedicationRequest/medications-for-below-normal-bmi-5d2d","resource":{"resourceType":"MedicationRequest","id":"220ee2c3-580e-4882-b210-af68d3ab2395","meta":{"profile":["http://hl7.org/fhir/us/qicore/StructureDefinition/qicore-mednotrequested"]},"extension":[{"url":"http://hl7.org/fhir/us/qicore/StructureDefinition/qicore-notDoneReason","valueCodeableConcept":{"coding":[{"system":"http://snomed.info/sct","code":"183932001","display":"Procedure contraindicated (situation)","userSelected":true}]}}],"status":"completed","intent":"order","doNotPerform":true,"medicationCodeableConcept":{"coding":[{"system":"http://www.nlm.nih.gov/research/umls/rxnorm","code":"1928948","display":"dronabinol 5 MG/ML Oral Solution","userSelected":true}]},"subject":{"reference":"Patient/b98fcec4-23a5-41bd-82d8-bad2f50ffc9c"},"authoredOn":"2025-01-01T00:01:00.000+00:00","requester":{"reference":"Practitioner/example","display":"Patrick Pump"},"reasonCode":[{"coding":[{"system":"http://snomed.info/sct","code":"416098002","display":"Allergy to drug (finding)"}]}]},"request":{"method":"PUT","url":"MedicationRequest/220ee2c3-580e-4882-b210-af68d3ab2395"}},{"fullUrl":"https://madie.cms.gov/Coverage/1","resource":{"resourceType":"Coverage","id":"e0e413ba-b4cd-44ee-8ee4-b45f0b8140fa","meta":{"profile":["http://hl7.org/fhir/us/qicore/StructureDefinition/qicore-coverage"]},"status":"active","beneficiary":{"reference":"Patient/b98fcec4-23a5-41bd-82d8-bad2f50ffc9c"},"payor":[{"reference":"Organization/4b5a882f-1f43-485c-85c6-f5ad2337d5b1"}]},"request":{"method":"PUT","url":"Coverage/e0e413ba-b4cd-44ee-8ee4-b45f0b8140fa"}},{"fullUrl":"https://madie.cms.gov/Organization/123456","resource":{"resourceType":"Organization","id":"4b5a882f-1f43-485c-85c6-f5ad2337d5b1","meta":{"profile":["http://hl7.org/fhir/us/qicore/StructureDefinition/qicore-organization"]},"identifier":[{"use":"temp","system":"urn:oid:2.16.840.1.113883.4.4","value":"21-3259825"}],"active":true,"type":[{"coding":[{"system":"http://terminology.hl7.org/CodeSystem/organization-type","code":"pay","display":"Payer"}]}],"name":"Blue Cross Blue Shield of Texas","telecom":[{"system":"phone","value":"(+1) 972-766-6900"}],"address":[{"use":"billing","type":"postal","line":["P.O. Box 660044"],"city":"Dallas","state":"TX","postalCode":"75266-0044","country":"USA"}]},"request":{"method":"PUT","url":"Organization/4b5a882f-1f43-485c-85c6-f5ad2337d5b1"}},{"fullUrl":"https://madie.cms.gov/MeasureReport/d745cfa4-fd34-44c2-9f7a-048cec913e3c","resource":{"resourceType":"MeasureReport","id":"d745cfa4-fd34-44c2-9f7a-048cec913e3c","meta":{"profile":["http://hl7.org/fhir/us/cqfmeasures/StructureDefinition/test-case-cqfm"]},"contained":[{"resourceType":"Parameters","id":"6b3810cb-f676-4200-9b7f-b665ace0c86d-parameters","parameter":[{"name":"subject","valueString":"b98fcec4-23a5-41bd-82d8-bad2f50ffc9c"}]}],"extension":[{"url":"http://hl7.org/fhir/us/cqfmeasures/StructureDefinition/cqfm-inputParameters","valueReference":{"reference":"#6b3810cb-f676-4200-9b7f-b665ace0c86d-parameters"}},{"url":"http://hl7.org/fhir/us/cqfmeasures/StructureDefinition/cqfm-testCaseDescription","valueMarkdown":"Enc first day, first minutes of MP, BMI low @ 18.4 kg/m2  with medical reason for not providing medication.  "}],"modifierExtension":[{"url":"http://hl7.org/fhir/us/cqfmeasures/StructureDefinition/cqfm-isTestCase","valueBoolean":true}],"status":"complete","type":"individual","measure":"https://madie.cms.gov/Measure/PCSBMIScreenAndFollowUpFHIR","period":{"start":"2025-01-01","end":"2025-12-31"},"group":[{"population":[{"code":{"coding":[{"system":"http://terminology.hl7.org/CodeSystem/measure-population","code":"initial-population","display":"Initial Population"}]},"count":1},{"code":{"coding":[{"system":"http://terminology.hl7.org/CodeSystem/measure-population","code":"denominator","display":"Denominator"}]},"count":1},{"code":{"coding":[{"system":"http://terminology.hl7.org/CodeSystem/measure-population","code":"denominator-exclusion","display":"Denominator Exclusion"}]},"count":0},{"code":{"coding":[{"system":"http://terminology.hl7.org/CodeSystem/measure-population","code":"denominator-exception","display":"Denominator Exception"}]},"count":1},{"code":{"coding":[{"system":"http://terminology.hl7.org/CodeSystem/measure-population","code":"numerator","display":"Numerator"}]},"count":0}]}]},"request":{"method":"PUT","url":"MeasureReport/d745cfa4-fd34-44c2-9f7a-048cec913e3c"}}]}