{"resourceType":"Bundle","id":"tests-097cbc7a-d22e-4395-9fcf-fd1f904f7c92-bundle","type":"transaction","entry":[{"fullUrl":"https://madie.cms.gov/Patient/097cbc7a-d22e-4395-9fcf-fd1f904f7c92","resource":{"resourceType":"Patient","id":"097cbc7a-d22e-4395-9fcf-fd1f904f7c92","meta":{"profile":["http://hl7.org/fhir/us/qicore/StructureDefinition/qicore-patient"]},"extension":[{"url":"http://hl7.org/fhir/us/core/StructureDefinition/us-core-race","extension":[{"url":"ombCategory","valueCoding":{"system":"urn:oid:2.16.840.1.113883.6.238","code":"2106-3","display":"White","userSelected":true}},{"url":"text","valueString":"White"}]},{"url":"http://hl7.org/fhir/us/core/StructureDefinition/us-core-ethnicity","extension":[{"url":"ombCategory","valueCoding":{"system":"urn:oid:2.16.840.1.113883.6.238","code":"2186-5","display":"Not Hispanic or Latino","userSelected":true}},{"url":"text","valueString":"Not Hispanic or Latino"}]}],"identifier":[{"type":{"coding":[{"system":"http://terminology.hl7.org/CodeSystem/v2-0203","code":"MR"}]},"system":"https://bonnie-fhir.healthit.gov/","value":"62fbef57bf5132f90ee35d41"}],"name":[{"family":"DENEXPass","given":["HospiceProcedure"]}],"gender":"unknown","birthDate":"1956-11-07"},"request":{"method":"PUT","url":"Patient/097cbc7a-d22e-4395-9fcf-fd1f904f7c92"}},{"fullUrl":"https://madie.cms.gov/Encounter/encounter-to-evaluate-bmi-533b","resource":{"resourceType":"Encounter","id":"807e29b0-9bd3-48dd-8649-803c6e523c68","meta":{"profile":["http://hl7.org/fhir/us/qicore/StructureDefinition/qicore-encounter"]},"status":"finished","class":{"system":"http://terminology.hl7.org/CodeSystem/v3-ActCode","code":"AMB","display":"ambulatory"},"type":[{"coding":[{"system":"http://snomed.info/sct","version":"2022-03","code":"10197000","display":"Psychiatric interview and evaluation (procedure)","userSelected":true}]}],"subject":{"reference":"Patient/097cbc7a-d22e-4395-9fcf-fd1f904f7c92"},"period":{"start":"2025-12-31T23:30:00.000+00:00","end":"2025-12-31T23:59:00.000+00:00"}},"request":{"method":"PUT","url":"Encounter/807e29b0-9bd3-48dd-8649-803c6e523c68"}},{"fullUrl":"https://madie.cms.gov/Procedure/hospice-care-ambulatory-5350","resource":{"resourceType":"Procedure","id":"2e2202b6-2dd4-4880-b6ed-070d30f9fbdf","meta":{"profile":["http://hl7.org/fhir/us/qicore/StructureDefinition/qicore-procedure"]},"extension":[{"url":"http://hl7.org/fhir/us/qicore/StructureDefinition/qicore-recorded","valueDateTime":"2025-12-31T23:59:00.000+00:00"}],"status":"completed","code":{"coding":[{"system":"http://snomed.info/sct","version":"2022-03","code":"385763009","display":"Hospice care (regime/therapy)","userSelected":true}]},"subject":{"reference":"Patient/097cbc7a-d22e-4395-9fcf-fd1f904f7c92"},"performedDateTime":"2025-12-31T23:59:00.000+00:00"},"request":{"method":"PUT","url":"Procedure/2e2202b6-2dd4-4880-b6ed-070d30f9fbdf"}},{"fullUrl":"https://madie.cms.gov/Coverage/1","resource":{"resourceType":"Coverage","id":"32c7de96-96a7-4cfa-87c5-76ddae937d39","meta":{"profile":["http://hl7.org/fhir/us/qicore/StructureDefinition/qicore-coverage"]},"status":"active","beneficiary":{"reference":"Patient/097cbc7a-d22e-4395-9fcf-fd1f904f7c92"},"payor":[{"reference":"Organization/4b5a882f-1f43-485c-85c6-f5ad2337d5b1"}]},"request":{"method":"PUT","url":"Coverage/32c7de96-96a7-4cfa-87c5-76ddae937d39"}},{"fullUrl":"https://madie.cms.gov/Organization/123456","resource":{"resourceType":"Organization","id":"4b5a882f-1f43-485c-85c6-f5ad2337d5b1","meta":{"profile":["http://hl7.org/fhir/us/qicore/StructureDefinition/qicore-organization"]},"identifier":[{"use":"temp","system":"urn:oid:2.16.840.1.113883.4.4","value":"21-3259825"}],"active":true,"type":[{"coding":[{"system":"http://terminology.hl7.org/CodeSystem/organization-type","code":"pay","display":"Payer"}]}],"name":"Blue Cross Blue Shield of Texas","telecom":[{"system":"phone","value":"(+1) 972-766-6900"}],"address":[{"use":"billing","type":"postal","line":["P.O. Box 660044"],"city":"Dallas","state":"TX","postalCode":"75266-0044","country":"USA"}]},"request":{"method":"PUT","url":"Organization/4b5a882f-1f43-485c-85c6-f5ad2337d5b1"}},{"fullUrl":"https://madie.cms.gov/MeasureReport/0a1b3ee1-7954-41a7-9ed9-59010997a12a","resource":{"resourceType":"MeasureReport","id":"0a1b3ee1-7954-41a7-9ed9-59010997a12a","meta":{"profile":["http://hl7.org/fhir/us/cqfmeasures/StructureDefinition/test-case-cqfm"]},"contained":[{"resourceType":"Parameters","id":"148d4f94-b534-4637-9fb9-502d95cc2b64-parameters","parameter":[{"name":"subject","valueString":"097cbc7a-d22e-4395-9fcf-fd1f904f7c92"}]}],"extension":[{"url":"http://hl7.org/fhir/us/cqfmeasures/StructureDefinition/cqfm-inputParameters","valueReference":{"reference":"#148d4f94-b534-4637-9fb9-502d95cc2b64-parameters"}},{"url":"http://hl7.org/fhir/us/cqfmeasures/StructureDefinition/cqfm-testCaseDescription","valueMarkdown":"Enc last day of MP, procedure hospice "}],"modifierExtension":[{"url":"http://hl7.org/fhir/us/cqfmeasures/StructureDefinition/cqfm-isTestCase","valueBoolean":true}],"status":"complete","type":"individual","measure":"https://madie.cms.gov/Measure/PCSBMIScreenAndFollowUpFHIR","period":{"start":"2025-01-01","end":"2025-12-31"},"group":[{"population":[{"code":{"coding":[{"system":"http://terminology.hl7.org/CodeSystem/measure-population","code":"initial-population","display":"Initial Population"}]},"count":1},{"code":{"coding":[{"system":"http://terminology.hl7.org/CodeSystem/measure-population","code":"denominator","display":"Denominator"}]},"count":1},{"code":{"coding":[{"system":"http://terminology.hl7.org/CodeSystem/measure-population","code":"denominator-exclusion","display":"Denominator Exclusion"}]},"count":1},{"code":{"coding":[{"system":"http://terminology.hl7.org/CodeSystem/measure-population","code":"numerator","display":"Numerator"}]},"count":0},{"code":{"coding":[{"system":"http://terminology.hl7.org/CodeSystem/measure-population","code":"denominator-exception","display":"Denominator Exception"}]},"count":0}]}]},"request":{"method":"PUT","url":"MeasureReport/0a1b3ee1-7954-41a7-9ed9-59010997a12a"}}]}