{"resourceType":"Bundle","id":"tests-d3054ffa-e17b-4611-b7e0-4523fb0f9e1d-bundle","type":"transaction","entry":[{"fullUrl":"https://madie.cms.gov/Patient/d3054ffa-e17b-4611-b7e0-4523fb0f9e1d","resource":{"resourceType":"Patient","id":"d3054ffa-e17b-4611-b7e0-4523fb0f9e1d","meta":{"profile":["http://hl7.org/fhir/us/qicore/StructureDefinition/qicore-patient"]},"extension":[{"url":"http://hl7.org/fhir/us/core/StructureDefinition/us-core-race","extension":[{"url":"ombCategory","valueCoding":{"system":"urn:oid:2.16.840.1.113883.6.238","code":"2106-3","display":"White","userSelected":true}},{"url":"text","valueString":"White"}]},{"url":"http://hl7.org/fhir/us/core/StructureDefinition/us-core-ethnicity","extension":[{"url":"ombCategory","valueCoding":{"system":"urn:oid:2.16.840.1.113883.6.238","code":"2186-5","display":"Not Hispanic or Latino","userSelected":true}},{"url":"text","valueString":"Not Hispanic or Latino"}]}],"identifier":[{"type":{"coding":[{"system":"http://terminology.hl7.org/CodeSystem/v2-0203","code":"MR"}]},"system":"https://bonnie-fhir.healthit.gov/","value":"62df233e0056b6e23ec6759e"}],"name":[{"family":"NUMERFail","given":["LowBMIAndInterventionOrderedFollowUpConditionEndsB4InterventionOrder"]}],"gender":"unknown","birthDate":"1956-11-07"},"request":{"method":"PUT","url":"Patient/d3054ffa-e17b-4611-b7e0-4523fb0f9e1d"}},{"fullUrl":"https://madie.cms.gov/Encounter/encounter-to-evaluate-bmi-533b","resource":{"resourceType":"Encounter","id":"616f2ed4-3756-42a7-8813-2d3df6a69fd9","meta":{"profile":["http://hl7.org/fhir/us/qicore/StructureDefinition/qicore-encounter"]},"status":"finished","class":{"system":"http://terminology.hl7.org/CodeSystem/v3-ActCode","code":"AMB","display":"ambulatory"},"type":[{"coding":[{"system":"http://snomed.info/sct","version":"2022-03","code":"10197000","display":"Psychiatric interview and evaluation (procedure)","userSelected":true}]}],"subject":{"reference":"Patient/d3054ffa-e17b-4611-b7e0-4523fb0f9e1d"},"period":{"start":"2025-12-31T23:30:00.000+00:00","end":"2025-12-31T23:59:00.000+00:00"}},"request":{"method":"PUT","url":"Encounter/616f2ed4-3756-42a7-8813-2d3df6a69fd9"}},{"fullUrl":"https://madie.cms.gov/Observation/body-mass-index-bmi-ratio-534c","resource":{"resourceType":"Observation","id":"b759c88b-886e-4dca-b578-9890825a42ab","meta":{"profile":["http://hl7.org/fhir/StructureDefinition/bmi"]},"status":"amended","category":[{"coding":[{"system":"http://terminology.hl7.org/CodeSystem/observation-category","code":"vital-signs","display":"Vital Signs"}]}],"code":{"coding":[{"system":"http://loinc.org","code":"39156-5","display":"Body mass index (BMI) [Ratio]","userSelected":true}]},"subject":{"reference":"Patient/d3054ffa-e17b-4611-b7e0-4523fb0f9e1d"},"effectiveDateTime":"2025-12-31T23:59:00.000+00:00","valueQuantity":{"value":17,"unit":"kg/m2","system":"http://unitsofmeasure.org","code":"kg/m2"}},"request":{"method":"PUT","url":"Observation/b759c88b-886e-4dca-b578-9890825a42ab"}},{"fullUrl":"https://madie.cms.gov/Condition/underweight-759f","resource":{"resourceType":"Condition","id":"610ed223-2ca9-4f27-9031-d69325eb1687","meta":{"profile":["http://hl7.org/fhir/us/qicore/StructureDefinition/qicore-condition"]},"clinicalStatus":{"coding":[{"system":"http://terminology.hl7.org/CodeSystem/condition-clinical","code":"inactive","display":"active","userSelected":true}]},"category":[{"coding":[{"system":"http://terminology.hl7.org/CodeSystem/condition-category","code":"problem-list-item","display":"Problem List Item"},{"system":"http://snomed.info/sct","code":"439401001","display":"Diagnosis"}]}],"code":{"coding":[{"system":"http://snomed.info/sct","version":"2022-03","code":"248342006","display":"Underweight (finding)","userSelected":true}]},"subject":{"reference":"Patient/d3054ffa-e17b-4611-b7e0-4523fb0f9e1d"},"abatementPeriod":{"start":"2023-01-01T08:00:00.000+00:00","end":"2024-07-24T08:15:00.000+00:00"}},"request":{"method":"PUT","url":"Condition/610ed223-2ca9-4f27-9031-d69325eb1687"}},{"fullUrl":"https://madie.cms.gov/ServiceRequest/follow-up-for-below-normal-bmi-75a0","resource":{"resourceType":"ServiceRequest","id":"2f5aef6a-2086-4d5a-a655-5bfdef193681","meta":{"profile":["http://hl7.org/fhir/us/qicore/StructureDefinition/qicore-servicerequest"]},"status":"active","intent":"order","code":{"coding":[{"system":"http://snomed.info/sct","version":"2022-03","code":"182922004","display":"Dietary regime (regime/therapy)","userSelected":true}]},"subject":{"reference":"Patient/d3054ffa-e17b-4611-b7e0-4523fb0f9e1d"},"authoredOn":"2024-07-25T08:00:00.000+00:00"},"request":{"method":"PUT","url":"ServiceRequest/2f5aef6a-2086-4d5a-a655-5bfdef193681"}},{"fullUrl":"https://madie.cms.gov/Coverage/1","resource":{"resourceType":"Coverage","id":"2deddbc9-826b-43cf-b4f0-c7c48a8533f6","meta":{"profile":["http://hl7.org/fhir/us/qicore/StructureDefinition/qicore-coverage"]},"status":"active","beneficiary":{"reference":"Patient/d3054ffa-e17b-4611-b7e0-4523fb0f9e1d"},"payor":[{"reference":"Organization/4b5a882f-1f43-485c-85c6-f5ad2337d5b1"}]},"request":{"method":"PUT","url":"Coverage/2deddbc9-826b-43cf-b4f0-c7c48a8533f6"}},{"fullUrl":"https://madie.cms.gov/Organization/123456","resource":{"resourceType":"Organization","id":"4b5a882f-1f43-485c-85c6-f5ad2337d5b1","meta":{"profile":["http://hl7.org/fhir/us/qicore/StructureDefinition/qicore-organization"]},"identifier":[{"use":"temp","system":"urn:oid:2.16.840.1.113883.4.4","value":"21-3259825"}],"active":true,"type":[{"coding":[{"system":"http://terminology.hl7.org/CodeSystem/organization-type","code":"pay","display":"Payer"}]}],"name":"Blue Cross Blue Shield of Texas","telecom":[{"system":"phone","value":"(+1) 972-766-6900"}],"address":[{"use":"billing","type":"postal","line":["P.O. Box 660044"],"city":"Dallas","state":"TX","postalCode":"75266-0044","country":"USA"}]},"request":{"method":"PUT","url":"Organization/4b5a882f-1f43-485c-85c6-f5ad2337d5b1"}},{"fullUrl":"https://madie.cms.gov/MeasureReport/9d09cd9a-aafe-4b56-abb5-fefc4969b956","resource":{"resourceType":"MeasureReport","id":"9d09cd9a-aafe-4b56-abb5-fefc4969b956","meta":{"profile":["http://hl7.org/fhir/us/cqfmeasures/StructureDefinition/test-case-cqfm"]},"contained":[{"resourceType":"Parameters","id":"8529ff16-60cd-49a0-94da-ce7cc60a6b9d-parameters","parameter":[{"name":"subject","valueString":"d3054ffa-e17b-4611-b7e0-4523fb0f9e1d"}]}],"extension":[{"url":"http://hl7.org/fhir/us/cqfmeasures/StructureDefinition/cqfm-inputParameters","valueReference":{"reference":"#8529ff16-60cd-49a0-94da-ce7cc60a6b9d-parameters"}},{"url":"http://hl7.org/fhir/us/cqfmeasures/StructureDefinition/cqfm-testCaseDescription","valueMarkdown":"Enc last day of MP as well as BMI which results 16 kg/m2, dx underweight onset 1/2023 now \"inactive\" 7/24/2024, dietary order 7/25/2024, expected to fail numer d/t intervention after the fact."}],"modifierExtension":[{"url":"http://hl7.org/fhir/us/cqfmeasures/StructureDefinition/cqfm-isTestCase","valueBoolean":true}],"status":"complete","type":"individual","measure":"https://madie.cms.gov/Measure/PCSBMIScreenAndFollowUpFHIR","period":{"start":"2025-01-01","end":"2025-12-31"},"group":[{"population":[{"code":{"coding":[{"system":"http://terminology.hl7.org/CodeSystem/measure-population","code":"initial-population","display":"Initial Population"}]},"count":1},{"code":{"coding":[{"system":"http://terminology.hl7.org/CodeSystem/measure-population","code":"denominator","display":"Denominator"}]},"count":1},{"code":{"coding":[{"system":"http://terminology.hl7.org/CodeSystem/measure-population","code":"denominator-exclusion","display":"Denominator Exclusion"}]},"count":0},{"code":{"coding":[{"system":"http://terminology.hl7.org/CodeSystem/measure-population","code":"denominator-exception","display":"Denominator Exception"}]},"count":0},{"code":{"coding":[{"system":"http://terminology.hl7.org/CodeSystem/measure-population","code":"numerator","display":"Numerator"}]},"count":0}]}]},"request":{"method":"PUT","url":"MeasureReport/9d09cd9a-aafe-4b56-abb5-fefc4969b956"}}]}