{"resourceType":"Bundle","id":"tests-42e6b4d6-defc-4ec5-894f-e3333e3039a3-bundle","type":"transaction","entry":[{"fullUrl":"https://madie.cms.gov/Patient/42e6b4d6-defc-4ec5-894f-e3333e3039a3","resource":{"resourceType":"Patient","id":"42e6b4d6-defc-4ec5-894f-e3333e3039a3","meta":{"profile":["http://hl7.org/fhir/us/qicore/StructureDefinition/qicore-patient"]},"extension":[{"url":"http://hl7.org/fhir/us/core/StructureDefinition/us-core-race","extension":[{"url":"ombCategory","valueCoding":{"system":"urn:oid:2.16.840.1.113883.6.238","code":"1002-5","display":"American Indian or Alaska Native","userSelected":true}},{"url":"text","valueString":"American Indian or Alaska Native"}]},{"url":"http://hl7.org/fhir/us/core/StructureDefinition/us-core-ethnicity","extension":[{"url":"ombCategory","valueCoding":{"system":"urn:oid:2.16.840.1.113883.6.238","code":"2186-5","display":"Not Hispanic or Latino","userSelected":true}},{"url":"text","valueString":"Not Hispanic or Latino"}]}],"identifier":[{"type":{"coding":[{"system":"http://terminology.hl7.org/CodeSystem/v2-0203","code":"MR"}]},"system":"https://bonnie-fhir.healthit.gov/","value":"62aa60bdc4be4c506d4a534b"}],"name":[{"family":"NUMERPass","given":["NormalBMIAt24pt9"]}],"gender":"other","birthDate":"1956-11-07"},"request":{"method":"PUT","url":"Patient/42e6b4d6-defc-4ec5-894f-e3333e3039a3"}},{"fullUrl":"https://madie.cms.gov/Encounter/encounter-to-evaluate-bmi-533b","resource":{"resourceType":"Encounter","id":"0b71a2d5-daaa-4807-b401-9a7d297f506e","meta":{"profile":["http://hl7.org/fhir/us/qicore/StructureDefinition/qicore-encounter"]},"status":"finished","class":{"system":"http://terminology.hl7.org/CodeSystem/v3-ActCode","code":"AMB","display":"ambulatory"},"type":[{"coding":[{"system":"http://snomed.info/sct","version":"2022-03","code":"10197000","display":"Psychiatric interview and evaluation (procedure)","userSelected":true}]}],"subject":{"reference":"Patient/42e6b4d6-defc-4ec5-894f-e3333e3039a3"},"period":{"start":"2025-01-01T00:00:00.000+00:00","end":"2025-01-01T00:30:00.000+00:00"}},"request":{"method":"PUT","url":"Encounter/0b71a2d5-daaa-4807-b401-9a7d297f506e"}},{"fullUrl":"https://madie.cms.gov/Observation/body-mass-index-bmi-ratio-534c","resource":{"resourceType":"Observation","id":"3d05b967-0d00-40eb-b88f-68194043ecc5","meta":{"profile":["http://hl7.org/fhir/StructureDefinition/bmi"]},"status":"final","category":[{"coding":[{"system":"http://terminology.hl7.org/CodeSystem/observation-category","code":"vital-signs","display":"Vital Signs"}]}],"code":{"coding":[{"system":"http://loinc.org","code":"39156-5","display":"Body mass index (BMI) [Ratio]","userSelected":true}]},"subject":{"reference":"Patient/42e6b4d6-defc-4ec5-894f-e3333e3039a3"},"effectiveDateTime":"2025-01-01T00:30:00.000+00:00","valueQuantity":{"value":24.9,"unit":"kg/m2","system":"http://unitsofmeasure.org","code":"kg/m2"}},"request":{"method":"PUT","url":"Observation/3d05b967-0d00-40eb-b88f-68194043ecc5"}},{"fullUrl":"https://madie.cms.gov/Coverage/1","resource":{"resourceType":"Coverage","id":"345b7a14-39eb-4fbc-8ff2-c0e9bd6008f7","meta":{"profile":["http://hl7.org/fhir/us/qicore/StructureDefinition/qicore-coverage"]},"status":"active","beneficiary":{"reference":"Patient/42e6b4d6-defc-4ec5-894f-e3333e3039a3"},"payor":[{"reference":"Organization/4b5a882f-1f43-485c-85c6-f5ad2337d5b1"}]},"request":{"method":"PUT","url":"Coverage/345b7a14-39eb-4fbc-8ff2-c0e9bd6008f7"}},{"fullUrl":"https://madie.cms.gov/Organization/123456","resource":{"resourceType":"Organization","id":"4b5a882f-1f43-485c-85c6-f5ad2337d5b1","meta":{"profile":["http://hl7.org/fhir/us/qicore/StructureDefinition/qicore-organization"]},"identifier":[{"use":"temp","system":"urn:oid:2.16.840.1.113883.4.4","value":"21-3259825"}],"active":true,"type":[{"coding":[{"system":"http://terminology.hl7.org/CodeSystem/organization-type","code":"pay","display":"Payer"}]}],"name":"Blue Cross Blue Shield of Texas","telecom":[{"system":"phone","value":"(+1) 972-766-6900"}],"address":[{"use":"billing","type":"postal","line":["P.O. Box 660044"],"city":"Dallas","state":"TX","postalCode":"75266-0044","country":"USA"}]},"request":{"method":"PUT","url":"Organization/4b5a882f-1f43-485c-85c6-f5ad2337d5b1"}},{"fullUrl":"https://madie.cms.gov/MeasureReport/70d09b12-32b5-49b7-ba0f-d389134ad407","resource":{"resourceType":"MeasureReport","id":"70d09b12-32b5-49b7-ba0f-d389134ad407","meta":{"profile":["http://hl7.org/fhir/us/cqfmeasures/StructureDefinition/test-case-cqfm"]},"contained":[{"resourceType":"Parameters","id":"b0df723a-fee7-42f6-bdc5-6a3a8f75912a-parameters","parameter":[{"name":"subject","valueString":"42e6b4d6-defc-4ec5-894f-e3333e3039a3"}]}],"extension":[{"url":"http://hl7.org/fhir/us/cqfmeasures/StructureDefinition/cqfm-inputParameters","valueReference":{"reference":"#b0df723a-fee7-42f6-bdc5-6a3a8f75912a-parameters"}},{"url":"http://hl7.org/fhir/us/cqfmeasures/StructureDefinition/cqfm-testCaseDescription","valueMarkdown":"Enc first day of MP, normal BMI at 24.9, no intervention needed"}],"modifierExtension":[{"url":"http://hl7.org/fhir/us/cqfmeasures/StructureDefinition/cqfm-isTestCase","valueBoolean":true}],"status":"complete","type":"individual","measure":"https://madie.cms.gov/Measure/PCSBMIScreenAndFollowUpFHIR","period":{"start":"2025-01-01","end":"2025-12-31"},"group":[{"population":[{"code":{"coding":[{"system":"http://terminology.hl7.org/CodeSystem/measure-population","code":"initial-population","display":"Initial Population"}]},"count":1},{"code":{"coding":[{"system":"http://terminology.hl7.org/CodeSystem/measure-population","code":"denominator","display":"Denominator"}]},"count":1},{"code":{"coding":[{"system":"http://terminology.hl7.org/CodeSystem/measure-population","code":"denominator-exclusion","display":"Denominator Exclusion"}]},"count":0},{"code":{"coding":[{"system":"http://terminology.hl7.org/CodeSystem/measure-population","code":"numerator","display":"Numerator"}]},"count":1},{"code":{"coding":[{"system":"http://terminology.hl7.org/CodeSystem/measure-population","code":"denominator-exception","display":"Denominator Exception"}]},"count":0}]}]},"request":{"method":"PUT","url":"MeasureReport/70d09b12-32b5-49b7-ba0f-d389134ad407"}}]}