{"resourceType":"Bundle","id":"tests-7b34e64e-e7fe-402c-9a26-12da90662897-bundle","type":"transaction","entry":[{"fullUrl":"https://madie.cms.gov/Patient/7b34e64e-e7fe-402c-9a26-12da90662897","resource":{"resourceType":"Patient","id":"7b34e64e-e7fe-402c-9a26-12da90662897","meta":{"profile":["http://hl7.org/fhir/us/qicore/StructureDefinition/qicore-patient"]},"extension":[{"url":"http://hl7.org/fhir/us/core/StructureDefinition/us-core-race","extension":[{"url":"ombCategory","valueCoding":{"system":"urn:oid:2.16.840.1.113883.6.238","code":"2054-5","display":"Black or African American","userSelected":true}},{"url":"text","valueString":"Black or African American"}]},{"url":"http://hl7.org/fhir/us/core/StructureDefinition/us-core-ethnicity","extension":[{"url":"ombCategory","valueCoding":{"system":"urn:oid:2.16.840.1.113883.6.238","code":"2186-5","display":"Not Hispanic or Latino","userSelected":true}},{"url":"text","valueString":"Not Hispanic or Latino"}]}],"identifier":[{"type":{"coding":[{"system":"http://terminology.hl7.org/CodeSystem/v2-0203","code":"MR"}]},"system":"https://bonnie-fhir.healthit.gov/","value":"62fbe41abf5132f90ee35d36"}],"name":[{"family":"DENEXPass","given":["DischargeToHospiceFacilityDuringMP"]}],"gender":"male","birthDate":"1945-10-15"},"request":{"method":"PUT","url":"Patient/7b34e64e-e7fe-402c-9a26-12da90662897"}},{"fullUrl":"https://madie.cms.gov/Encounter/encounter-to-evaluate-bmi-533f","resource":{"resourceType":"Encounter","id":"16fc211b-b25a-4df3-bbf2-1e9f1e7aabf2","meta":{"profile":["http://hl7.org/fhir/us/qicore/StructureDefinition/qicore-encounter"]},"status":"finished","class":{"system":"http://terminology.hl7.org/CodeSystem/v3-ActCode","code":"AMB","display":"ambulatory"},"type":[{"coding":[{"system":"http://snomed.info/sct","version":"2022-03","code":"10197000","display":"Psychiatric interview and evaluation (procedure)","userSelected":true}]}],"subject":{"reference":"Patient/7b34e64e-e7fe-402c-9a26-12da90662897"},"period":{"start":"2025-12-31T23:30:00.000+00:00","end":"2025-12-31T23:59:00.000+00:00"}},"request":{"method":"PUT","url":"Encounter/16fc211b-b25a-4df3-bbf2-1e9f1e7aabf2"}},{"fullUrl":"https://madie.cms.gov/Observation/body-mass-index-bmi-ratio-5d32","resource":{"resourceType":"Observation","id":"0159026f-1519-4c19-b15e-930793a8f44b","meta":{"profile":["http://hl7.org/fhir/us/qicore/StructureDefinition/qicore-observation"]},"status":"final","category":[{"coding":[{"system":"http://terminology.hl7.org/CodeSystem/observation-category","code":"procedure","display":"Procedure"}]}],"code":{"coding":[{"system":"http://loinc.org","code":"39156-5","display":"Body mass index (BMI) [Ratio]","userSelected":true}]},"subject":{"reference":"Patient/7b34e64e-e7fe-402c-9a26-12da90662897"},"effectiveDateTime":"2025-12-31T23:59:00.000+00:00","valueQuantity":{"value":40.0,"unit":"kg/m2","system":"https://ucum.org","code":"kg/m2"}},"request":{"method":"PUT","url":"Observation/0159026f-1519-4c19-b15e-930793a8f44b"}},{"fullUrl":"https://madie.cms.gov/Procedure/follow-up-for-above-normal-bmi-5d34","resource":{"resourceType":"Procedure","id":"496f8d24-4f1f-4d7b-a3d6-2a283d72c1b5","meta":{"profile":["http://hl7.org/fhir/us/qicore/StructureDefinition/qicore-procedure"]},"extension":[{"url":"http://hl7.org/fhir/us/qicore/StructureDefinition/qicore-recorded","valueDateTime":"2025-12-31T23:59:00.000+00:00"}],"status":"completed","code":{"coding":[{"system":"http://snomed.info/sct","version":"2022-03","code":"182922004","display":"Dietary regime (regime/therapy)","userSelected":true}]},"subject":{"reference":"Patient/7b34e64e-e7fe-402c-9a26-12da90662897"},"performedDateTime":"2025-12-31T23:59:00.000+00:00","reasonCode":[{"coding":[{"system":"http://hl7.org/fhir/sid/icd-10-cm","code":"E66.01","display":"Morbid (severe) obesity due to excess calories","userSelected":true}]}]},"request":{"method":"PUT","url":"Procedure/496f8d24-4f1f-4d7b-a3d6-2a283d72c1b5"}},{"fullUrl":"https://madie.cms.gov/Encounter/encounter-inpatient-5d35","resource":{"resourceType":"Encounter","id":"cbf41934-c488-4b72-8932-ae58405610bc","meta":{"profile":["http://hl7.org/fhir/us/qicore/StructureDefinition/qicore-encounter"]},"status":"finished","class":{"system":"http://terminology.hl7.org/CodeSystem/v3-ActCode","code":"AMB","display":"ambulatory"},"type":[{"coding":[{"system":"http://snomed.info/sct","version":"2022-03","code":"183452005","display":"Emergency hospital admission (procedure)","userSelected":true}]}],"subject":{"reference":"Patient/7b34e64e-e7fe-402c-9a26-12da90662897"},"period":{"start":"2025-02-28T23:30:00.000+00:00","end":"2025-02-28T23:59:00.000+00:00"},"hospitalization":{"dischargeDisposition":{"coding":[{"system":"http://snomed.info/sct","code":"428371000124100","display":"Discharge to healthcare facility for hospice care (procedure)","userSelected":true}]}}},"request":{"method":"PUT","url":"Encounter/cbf41934-c488-4b72-8932-ae58405610bc"}},{"fullUrl":"https://madie.cms.gov/Coverage/1","resource":{"resourceType":"Coverage","id":"aced7712-a184-44b9-af5e-955008cc9b36","meta":{"profile":["http://hl7.org/fhir/us/qicore/StructureDefinition/qicore-coverage"]},"status":"active","beneficiary":{"reference":"Patient/7b34e64e-e7fe-402c-9a26-12da90662897"},"payor":[{"reference":"Organization/e75793c9-fdf6-463a-8c1d-4ee44320dc25"}]},"request":{"method":"PUT","url":"Coverage/aced7712-a184-44b9-af5e-955008cc9b36"}},{"fullUrl":"https://madie.cms.gov/Organization/123456","resource":{"resourceType":"Organization","id":"e75793c9-fdf6-463a-8c1d-4ee44320dc25","meta":{"profile":["http://hl7.org/fhir/us/qicore/StructureDefinition/qicore-organization"]},"identifier":[{"use":"temp","system":"urn:oid:2.16.840.1.113883.4.4","value":"21-3259825"}],"active":true,"type":[{"coding":[{"system":"http://terminology.hl7.org/CodeSystem/organization-type","code":"pay","display":"Payer"}]}],"name":"Blue Cross Blue Shield of Texas","telecom":[{"system":"phone","value":"(+1) 972-766-6900"}],"address":[{"use":"billing","type":"postal","line":["P.O. Box 660044"],"city":"Dallas","state":"TX","postalCode":"75266-0044","country":"USA"}]},"request":{"method":"PUT","url":"Organization/e75793c9-fdf6-463a-8c1d-4ee44320dc25"}},{"fullUrl":"https://madie.cms.gov/MeasureReport/11d5d3a2-fd6d-44a9-a3b8-eac674ce3c4f","resource":{"resourceType":"MeasureReport","id":"11d5d3a2-fd6d-44a9-a3b8-eac674ce3c4f","meta":{"profile":["http://hl7.org/fhir/us/cqfmeasures/StructureDefinition/test-case-cqfm"]},"contained":[{"resourceType":"Parameters","id":"69698d76-5831-435d-a75b-56c07c8f8f7a-parameters","parameter":[{"name":"subject","valueString":"7b34e64e-e7fe-402c-9a26-12da90662897"}]}],"extension":[{"url":"http://hl7.org/fhir/us/cqfmeasures/StructureDefinition/cqfm-inputParameters","valueReference":{"reference":"#69698d76-5831-435d-a75b-56c07c8f8f7a-parameters"}},{"url":"http://hl7.org/fhir/us/cqfmeasures/StructureDefinition/cqfm-testCaseDescription","valueMarkdown":"Patient age 79 and has 2 encs. during the MP.  February inpatient encounter discharge to healthcare facility for hospice care. December enc. BMI 40 kg/m2, and dietary recommend made due to dx  of \"Morbid (severe) obesity due to excess calories\" "}],"modifierExtension":[{"url":"http://hl7.org/fhir/us/cqfmeasures/StructureDefinition/cqfm-isTestCase","valueBoolean":true}],"status":"complete","type":"individual","measure":"https://madie.cms.gov/Measure/PCSBMIScreenAndFollowUpFHIR","period":{"start":"2025-01-01","end":"2025-12-31"},"group":[{"population":[{"code":{"coding":[{"system":"http://terminology.hl7.org/CodeSystem/measure-population","code":"initial-population","display":"Initial Population"}]},"count":1},{"code":{"coding":[{"system":"http://terminology.hl7.org/CodeSystem/measure-population","code":"denominator","display":"Denominator"}]},"count":1},{"code":{"coding":[{"system":"http://terminology.hl7.org/CodeSystem/measure-population","code":"denominator-exclusion","display":"Denominator Exclusion"}]},"count":1},{"code":{"coding":[{"system":"http://terminology.hl7.org/CodeSystem/measure-population","code":"denominator-exception","display":"Denominator Exception"}]},"count":0},{"code":{"coding":[{"system":"http://terminology.hl7.org/CodeSystem/measure-population","code":"numerator","display":"Numerator"}]},"count":0}]}]},"request":{"method":"PUT","url":"MeasureReport/11d5d3a2-fd6d-44a9-a3b8-eac674ce3c4f"}}]}