{"resourceType":"Bundle","id":"tests-ddfb765a-a3fb-467f-a9d9-ac6faf4cea9a-bundle","type":"transaction","entry":[{"fullUrl":"https://madie.cms.gov/Patient/ddfb765a-a3fb-467f-a9d9-ac6faf4cea9a","resource":{"resourceType":"Patient","id":"ddfb765a-a3fb-467f-a9d9-ac6faf4cea9a","meta":{"profile":["http://hl7.org/fhir/us/qicore/StructureDefinition/qicore-patient"]},"extension":[{"url":"http://hl7.org/fhir/us/core/StructureDefinition/us-core-race","extension":[{"url":"ombCategory","valueCoding":{"system":"urn:oid:2.16.840.1.113883.6.238","code":"2106-3","display":"White","userSelected":true}},{"url":"text","valueString":"White"}]},{"url":"http://hl7.org/fhir/us/core/StructureDefinition/us-core-ethnicity","extension":[{"url":"ombCategory","valueCoding":{"system":"urn:oid:2.16.840.1.113883.6.238","code":"2186-5","display":"Not Hispanic or Latino","userSelected":true}},{"url":"text","valueString":"Not Hispanic or Latino"}]}],"identifier":[{"type":{"coding":[{"system":"http://terminology.hl7.org/CodeSystem/v2-0203","code":"MR"}]},"system":"https://bonnie-fhir.healthit.gov/","value":"62df26920056b6e23ec675a3"}],"name":[{"family":"NUMERPass","given":["LowBMIAndInterventionPerformedCondition"]}],"gender":"unknown","birthDate":"1956-11-07"},"request":{"method":"PUT","url":"Patient/ddfb765a-a3fb-467f-a9d9-ac6faf4cea9a"}},{"fullUrl":"https://madie.cms.gov/Encounter/encounter-to-evaluate-bmi-533b","resource":{"resourceType":"Encounter","id":"9f1940d0-6cf2-4b7b-82b7-825f996231c8","meta":{"profile":["http://hl7.org/fhir/us/qicore/StructureDefinition/qicore-encounter"]},"status":"finished","class":{"system":"http://terminology.hl7.org/CodeSystem/v3-ActCode","code":"AMB","display":"ambulatory"},"type":[{"coding":[{"system":"http://snomed.info/sct","version":"2022-03","code":"10197000","display":"Psychiatric interview and evaluation (procedure)","userSelected":true}]}],"subject":{"reference":"Patient/ddfb765a-a3fb-467f-a9d9-ac6faf4cea9a"},"period":{"start":"2025-01-01T00:00:00.000+00:00","end":"2025-01-01T00:30:00.000+00:00"}},"request":{"method":"PUT","url":"Encounter/9f1940d0-6cf2-4b7b-82b7-825f996231c8"}},{"fullUrl":"https://madie.cms.gov/Observation/body-mass-index-bmi-ratio-534c","resource":{"resourceType":"Observation","id":"9d158272-d9c7-4024-9b29-adef4e0c6f55","meta":{"profile":["http://hl7.org/fhir/StructureDefinition/bmi"]},"status":"final","category":[{"coding":[{"system":"http://terminology.hl7.org/CodeSystem/observation-category","code":"vital-signs","display":"Vital Signs"}]}],"code":{"coding":[{"system":"http://loinc.org","code":"39156-5","display":"Body mass index (BMI) [Ratio]","userSelected":true}]},"subject":{"reference":"Patient/ddfb765a-a3fb-467f-a9d9-ac6faf4cea9a"},"effectiveDateTime":"2025-01-01T00:30:00.000+00:00","valueQuantity":{"value":18,"unit":"kg/m2","system":"http://unitsofmeasure.org","code":"kg/m2"}},"request":{"method":"PUT","url":"Observation/9d158272-d9c7-4024-9b29-adef4e0c6f55"}},{"fullUrl":"https://madie.cms.gov/Procedure/follow-up-for-below-normal-bmi-534e","resource":{"resourceType":"Procedure","id":"ffc43dd2-d5b3-4b14-ad1b-bb734b41e64d","meta":{"profile":["http://hl7.org/fhir/us/qicore/StructureDefinition/qicore-procedure"]},"extension":[{"url":"http://hl7.org/fhir/us/qicore/StructureDefinition/qicore-recorded","valueDateTime":"2025-01-01T00:30:00.000+00:00"}],"status":"completed","code":{"coding":[{"system":"http://snomed.info/sct","version":"2022-03","code":"182922004","display":"Dietary regime (regime/therapy)","userSelected":true}]},"subject":{"reference":"Patient/ddfb765a-a3fb-467f-a9d9-ac6faf4cea9a"},"performedDateTime":"2025-01-01T00:30:00.000+00:00"},"request":{"method":"PUT","url":"Procedure/ffc43dd2-d5b3-4b14-ad1b-bb734b41e64d"}},{"fullUrl":"https://madie.cms.gov/Condition/underweight-75a4","resource":{"resourceType":"Condition","id":"3d37aa3a-4cbd-4877-a25f-f124fea4c987","meta":{"profile":["http://hl7.org/fhir/us/qicore/StructureDefinition/qicore-condition"]},"clinicalStatus":{"coding":[{"system":"http://terminology.hl7.org/CodeSystem/condition-clinical","code":"inactive","display":"inactive","userSelected":true}]},"category":[{"coding":[{"system":"http://hl7.org/fhir/us/core/CodeSystem/condition-category","code":"health-concern","display":"Health Concern"},{"system":"http://snomed.info/sct","code":"439401001","display":"Diagnosis"}]}],"code":{"coding":[{"system":"http://snomed.info/sct","version":"2022-03","code":"248342006","display":"Underweight (finding)","userSelected":true}]},"subject":{"reference":"Patient/ddfb765a-a3fb-467f-a9d9-ac6faf4cea9a"},"onsetDateTime":"2023-01-01T00:30:00.000+00:00","abatementDateTime":"2024-12-31T00:30:00.000+00:00"},"request":{"method":"PUT","url":"Condition/3d37aa3a-4cbd-4877-a25f-f124fea4c987"}},{"fullUrl":"https://madie.cms.gov/Coverage/1","resource":{"resourceType":"Coverage","id":"e4c40c7a-9554-4c89-8d6d-ae530d810f25","meta":{"profile":["http://hl7.org/fhir/us/qicore/StructureDefinition/qicore-coverage"]},"status":"active","beneficiary":{"reference":"Patient/ddfb765a-a3fb-467f-a9d9-ac6faf4cea9a"},"payor":[{"reference":"Organization/4b5a882f-1f43-485c-85c6-f5ad2337d5b1"}]},"request":{"method":"PUT","url":"Coverage/e4c40c7a-9554-4c89-8d6d-ae530d810f25"}},{"fullUrl":"https://madie.cms.gov/Organization/123456","resource":{"resourceType":"Organization","id":"4b5a882f-1f43-485c-85c6-f5ad2337d5b1","meta":{"profile":["http://hl7.org/fhir/us/qicore/StructureDefinition/qicore-organization"]},"identifier":[{"use":"temp","system":"urn:oid:2.16.840.1.113883.4.4","value":"21-3259825"}],"active":true,"type":[{"coding":[{"system":"http://terminology.hl7.org/CodeSystem/organization-type","code":"pay","display":"Payer"}]}],"name":"Blue Cross Blue Shield of Texas","telecom":[{"system":"phone","value":"(+1) 972-766-6900"}],"address":[{"use":"billing","type":"postal","line":["P.O. Box 660044"],"city":"Dallas","state":"TX","postalCode":"75266-0044","country":"USA"}]},"request":{"method":"PUT","url":"Organization/4b5a882f-1f43-485c-85c6-f5ad2337d5b1"}},{"fullUrl":"https://madie.cms.gov/MeasureReport/c97f2817-3338-4831-b873-bfc7163beb20","resource":{"resourceType":"MeasureReport","id":"c97f2817-3338-4831-b873-bfc7163beb20","meta":{"profile":["http://hl7.org/fhir/us/cqfmeasures/StructureDefinition/test-case-cqfm"]},"contained":[{"resourceType":"Parameters","id":"cd2c8080-42a3-42b0-b69a-7aa95ace5064-parameters","parameter":[{"name":"subject","valueString":"ddfb765a-a3fb-467f-a9d9-ac6faf4cea9a"}]}],"extension":[{"url":"http://hl7.org/fhir/us/cqfmeasures/StructureDefinition/cqfm-inputParameters","valueReference":{"reference":"#cd2c8080-42a3-42b0-b69a-7aa95ace5064-parameters"}},{"url":"http://hl7.org/fhir/us/cqfmeasures/StructureDefinition/cqfm-testCaseDescription","valueMarkdown":"Enc first min of MP, BMI 18, intervention performed for below normal BMI but patient Underweight dx ended last day of prior year MP."}],"modifierExtension":[{"url":"http://hl7.org/fhir/us/cqfmeasures/StructureDefinition/cqfm-isTestCase","valueBoolean":true}],"status":"complete","type":"individual","measure":"https://madie.cms.gov/Measure/PCSBMIScreenAndFollowUpFHIR","period":{"start":"2025-01-01","end":"2025-12-31"},"group":[{"population":[{"code":{"coding":[{"system":"http://terminology.hl7.org/CodeSystem/measure-population","code":"initial-population","display":"Initial Population"}]},"count":1},{"code":{"coding":[{"system":"http://terminology.hl7.org/CodeSystem/measure-population","code":"denominator","display":"Denominator"}]},"count":1},{"code":{"coding":[{"system":"http://terminology.hl7.org/CodeSystem/measure-population","code":"denominator-exclusion","display":"Denominator Exclusion"}]},"count":0},{"code":{"coding":[{"system":"http://terminology.hl7.org/CodeSystem/measure-population","code":"numerator","display":"Numerator"}]},"count":0},{"code":{"coding":[{"system":"http://terminology.hl7.org/CodeSystem/measure-population","code":"denominator-exception","display":"Denominator Exception"}]},"count":0}]}]},"request":{"method":"PUT","url":"MeasureReport/c97f2817-3338-4831-b873-bfc7163beb20"}}]}