{
  "resourceType": "Bundle",
  "id": "Patient-21-DENEXPass-BilateralOophorectomyDurMP",
  "type": "transaction",
  "entry": [ {
    "fullUrl": "https://madie.cms.gov/Patient/52a50072-2376-4766-820e-404e6dde3bb8",
    "resource": {
      "resourceType": "Patient",
      "id": "52a50072-2376-4766-820e-404e6dde3bb8",
      "meta": {
        "profile": [ "http://hl7.org/fhir/us/qicore/StructureDefinition/qicore-patient" ]
      },
      "extension": [ {
        "url": "http://hl7.org/fhir/us/core/StructureDefinition/us-core-race",
        "extension": [ {
          "url": "ombCategory",
          "valueCoding": {
            "system": "urn:oid:2.16.840.1.113883.6.238",
            "code": "2028-9",
            "display": "Asian"
          }
        }, {
          "url": "text",
          "valueString": "Asian"
        } ]
      }, {
        "url": "http://hl7.org/fhir/us/core/StructureDefinition/us-core-ethnicity",
        "extension": [ {
          "url": "ombCategory",
          "valueCoding": {
            "system": "urn:oid:2.16.840.1.113883.6.238",
            "code": "2135-2",
            "display": "Hispanic or Latino"
          }
        }, {
          "url": "text",
          "valueString": "Hispanic or Latino"
        } ]
      } ],
      "identifier": [ {
        "system": "http://hospital.smarthealthit.org",
        "value": "999999995"
      } ],
      "name": [ {
        "family": "Bertha",
        "given": [ "Betty" ]
      } ],
      "gender": "female",
      "birthDate": "1975-01-01"
    },
    "request": {
      "method": "PUT",
      "url": "Patient/52a50072-2376-4766-820e-404e6dde3bb8"
    }
  }, {
    "fullUrl": "https://madie.cms.gov/Encounter/Encounter-21",
    "resource": {
      "resourceType": "Encounter",
      "id": "Encounter-21",
      "meta": {
        "profile": [ "http://hl7.org/fhir/us/qicore/StructureDefinition/qicore-encounter" ]
      },
      "status": "finished",
      "class": {
        "system": "http://terminology.hl7.org/CodeSystem/v3-ActCode",
        "code": "AMB",
        "display": "ambulatory"
      },
      "type": [ {
        "coding": [ {
          "system": "http://snomed.info/sct",
          "code": "185317003",
          "display": "Telephone encounter (procedure)"
        } ]
      } ],
      "subject": {
        "reference": "Patient/52a50072-2376-4766-820e-404e6dde3bb8"
      },
      "period": {
        "start": "2025-01-02T00:00:00.000Z",
        "end": "2025-01-02T01:15:00.000Z"
      }
    },
    "request": {
      "method": "PUT",
      "url": "Encounter/Encounter-21"
    }
  }, {
    "fullUrl": "https://madie.cms.gov/Procedure/Procedure-21",
    "resource": {
      "resourceType": "Procedure",
      "id": "Procedure-21",
      "meta": {
        "profile": [ "http://hl7.org/fhir/us/qicore/StructureDefinition/qicore-procedure" ]
      },
      "extension": [ {
        "url": "http://hl7.org/fhir/us/qicore/StructureDefinition/qicore-recorded",
        "valueDateTime": "2025-12-31T00:00:00.000Z"
      } ],
      "status": "completed",
      "code": {
        "coding": [ {
          "system": "http://snomed.info/sct",
          "code": "29827000",
          "display": "Excision of bilateral fallopian tubes and ovaries (procedure)"
        } ]
      },
      "subject": {
        "reference": "Patient/52a50072-2376-4766-820e-404e6dde3bb8"
      },
      "performedPeriod": {
        "start": "2025-12-31T00:00:00.000Z",
        "end": "2025-12-31T23:59:00.000Z"
      }
    },
    "request": {
      "method": "PUT",
      "url": "Procedure/Procedure-21"
    }
  }, {
    "fullUrl": "https://madie.cms.gov/MeasureReport/ceae63dd-81ef-435b-a5cc-6007ff0670e6",
    "resource": {
      "resourceType": "MeasureReport",
      "id": "ceae63dd-81ef-435b-a5cc-6007ff0670e6",
      "meta": {
        "profile": [ "http://hl7.org/fhir/us/cqfmeasures/StructureDefinition/test-case-cqfm" ]
      },
      "contained": [ {
        "resourceType": "Parameters",
        "id": "696f23dc-518d-4666-8bc0-865e6a9893bb-parameters",
        "parameter": [ {
          "name": "subject",
          "valueString": "52a50072-2376-4766-820e-404e6dde3bb8"
        } ]
      } ],
      "extension": [ {
        "url": "http://hl7.org/fhir/us/cqfmeasures/StructureDefinition/cqfm-inputParameters",
        "valueReference": {
          "reference": "#696f23dc-518d-4666-8bc0-865e6a9893bb-parameters"
        }
      }, {
        "url": "http://hl7.org/fhir/us/cqfmeasures/StructureDefinition/cqfm-testCaseDescription",
        "valueMarkdown": "Bilateral Oophorectomy procedure in patients history during the MP"
      } ],
      "modifierExtension": [ {
        "url": "http://hl7.org/fhir/us/cqfmeasures/StructureDefinition/cqfm-isTestCase",
        "valueBoolean": true
      } ],
      "status": "complete",
      "type": "individual",
      "measure": "https://madie.cms.gov/Measure/AppropriateDXAScansForWomenUnder65FHIR",
      "period": {
        "start": "2025-01-01",
        "end": "2025-12-31"
      },
      "group": [ {
        "population": [ {
          "code": {
            "coding": [ {
              "system": "http://terminology.hl7.org/CodeSystem/measure-population",
              "code": "initial-population",
              "display": "Initial Population"
            } ]
          },
          "count": 1
        }, {
          "code": {
            "coding": [ {
              "system": "http://terminology.hl7.org/CodeSystem/measure-population",
              "code": "denominator",
              "display": "Denominator"
            } ]
          },
          "count": 1
        }, {
          "code": {
            "coding": [ {
              "system": "http://terminology.hl7.org/CodeSystem/measure-population",
              "code": "denominator-exclusion",
              "display": "Denominator Exclusion"
            } ]
          },
          "count": 1
        }, {
          "code": {
            "coding": [ {
              "system": "http://terminology.hl7.org/CodeSystem/measure-population",
              "code": "numerator",
              "display": "Numerator"
            } ]
          },
          "count": 0
        }, {
          "code": {
            "coding": [ {
              "system": "http://terminology.hl7.org/CodeSystem/measure-population",
              "code": "numerator-exclusion",
              "display": "Numerator Exclusion"
            } ]
          },
          "count": 0
        } ]
      } ],
      "evaluatedResource": [ {
        "reference": "Patient/52a50072-2376-4766-820e-404e6dde3bb8"
      }, {
        "reference": "Encounter/Encounter-21"
      }, {
        "reference": "Procedure/Procedure-21"
      } ]
    },
    "request": {
      "method": "PUT",
      "url": "MeasureReport/ceae63dd-81ef-435b-a5cc-6007ff0670e6"
    }
  } ]
}