{
  "resourceType": "Bundle",
  "id": "612e6b6402c62a011f2ed965",
  "type": "transaction",
  "entry": [ {
    "fullUrl": "https://madie.cms.gov/Patient/87532ec3-3437-4936-a22f-c33c134a9779",
    "resource": {
      "resourceType": "Patient",
      "id": "87532ec3-3437-4936-a22f-c33c134a9779",
      "meta": {
        "profile": [ "http://hl7.org/fhir/us/qicore/StructureDefinition/qicore-patient" ]
      },
      "text": {
        "status": "generated",
        "div": "<div xmlns=\"http://www.w3.org/1999/xhtml\"><div class=\"hapiHeaderText\">EncDxObstetricsVTE <b>IPPFAIL </b></div><table class=\"hapiPropertyTable\"><tbody><tr><td>Identifier</td><td>b7a7425ccd6ae25cbc6ebf054c4ec0a9</td></tr><tr><td>Date of birth</td><td><span>02 September 2003</span></td></tr></tbody></table></div>"
      },
      "extension": [ {
        "url": "http://hl7.org/fhir/us/core/StructureDefinition/us-core-race",
        "extension": [ {
          "url": "ombCategory",
          "valueCoding": {
            "system": "urn:oid:2.16.840.1.113883.6.238",
            "code": "1002-5",
            "display": "American Indian or Alaska Native",
            "userSelected": true
          }
        }, {
          "url": "text",
          "valueString": "American Indian or Alaska Native"
        } ]
      }, {
        "url": "http://hl7.org/fhir/us/core/StructureDefinition/us-core-ethnicity",
        "extension": [ {
          "url": "ombCategory",
          "valueCoding": {
            "system": "urn:oid:2.16.840.1.113883.6.238",
            "code": "2135-2",
            "display": "Hispanic or Latino",
            "userSelected": true
          }
        }, {
          "url": "text",
          "valueString": "Hispanic or Latino"
        } ]
      } ],
      "identifier": [ {
        "type": {
          "coding": [ {
            "system": "http://terminology.hl7.org/CodeSystem/v2-0203",
            "code": "MR"
          } ]
        },
        "system": "https://bonnie-fhir.healthit.gov/",
        "value": "612e6b6402c62a011f2ed965"
      } ],
      "active": true,
      "name": [ {
        "use": "usual",
        "family": "IPPFail",
        "given": [ "EncDxObstetricsVTE" ]
      } ],
      "gender": "male",
      "birthDate": "2003-09-02"
    },
    "request": {
      "method": "POST",
      "url": "Patient/87532ec3-3437-4936-a22f-c33c134a9779"
    }
  }, {
    "fullUrl": "https://madie.cms.gov/Encounter/5ca62962b8484628b8de1eaf",
    "resource": {
      "resourceType": "Encounter",
      "id": "5ca62962b8484628b8de1eaf",
      "meta": {
        "profile": [ "http://hl7.org/fhir/us/qicore/StructureDefinition/qicore-encounter" ]
      },
      "status": "finished",
      "class": {
        "system": "http://terminology.hl7.org/CodeSystem/v3-ActCode",
        "code": "IMP",
        "display": "inpatient encounter"
      },
      "type": [ {
        "coding": [ {
          "system": "http://snomed.info/sct",
          "code": "183452005"
        } ]
      } ],
      "subject": {
        "reference": "Patient/87532ec3-3437-4936-a22f-c33c134a9779"
      },
      "period": {
        "start": "2025-09-02T12:59:00+00:00",
        "end": "2025-09-02T13:14:00+00:00"
      },
      "length": {
        "value": 0.0,
        "unit": "days"
      },
      "diagnosis": [ {
        "condition": {
          "reference": "Condition/obstetrics-vte-9e0f"
        }
      } ]
    },
    "request": {
      "method": "POST",
      "url": "Encounter/5ca62962b8484628b8de1eaf"
    }
  }, {
    "fullUrl": "https://madie.cms.gov/Coverage/5fa0415b1c76ba66d99592b6",
    "resource": {
      "resourceType": "Coverage",
      "id": "5fa0415b1c76ba66d99592b6",
      "status": "active",
      "beneficiary": {
        "reference": "Patient/87532ec3-3437-4936-a22f-c33c134a9779"
      },
      "period": {
        "start": "2003-09-02T08:00:00+00:00"
      },
      "payor": [ {
        "reference": "Organization/123456"
      } ]
    },
    "request": {
      "method": "POST",
      "url": "Coverage/5fa0415b1c76ba66d99592b6"
    }
  }, {
    "fullUrl": "https://madie.cms.gov/Condition/obstetrics-vte-9e0f",
    "resource": {
      "resourceType": "Condition",
      "id": "obstetrics-vte-9e0f",
      "meta": {
        "profile": [ "http://hl7.org/fhir/us/qicore/StructureDefinition/qicore-condition" ]
      },
      "category": [ {
        "coding": [ {
          "system": "http://terminology.hl7.org/CodeSystem/condition-category",
          "code": "encounter-diagnosis",
          "display": "Encounter Diagnosis"
        } ]
      } ],
      "code": {
        "coding": [ {
          "system": "http://snomed.info/sct",
          "version": "2025-03",
          "code": "13943000",
          "display": "Failed attempted abortion complicated by embolism (disorder)",
          "userSelected": true
        } ]
      },
      "subject": {
        "reference": "Patient/87532ec3-3437-4936-a22f-c33c134a9779"
      },
      "recordedDate": "2025-07-07T08:00:00.000+00:00"
    },
    "request": {
      "method": "POST",
      "url": "Condition/obstetrics-vte-9e0f"
    }
  }, {
    "fullUrl": "https://madie.cms.gov/Organization/123456",
    "resource": {
      "resourceType": "Organization",
      "id": "123456",
      "meta": {
        "profile": [ "http://hl7.org/fhir/us/qicore/StructureDefinition/qicore-organization" ]
      },
      "identifier": [ {
        "use": "temp",
        "system": "urn:oid:2.16.840.1.113883.4.4",
        "value": "21-3259825"
      } ],
      "active": true,
      "type": [ {
        "coding": [ {
          "system": "http://terminology.hl7.org/CodeSystem/organization-type",
          "code": "pay",
          "display": "Payer"
        } ]
      } ],
      "name": "Blue Cross Blue Shield of Texas",
      "telecom": [ {
        "system": "phone",
        "value": "(+1) 972-766-6900"
      } ],
      "address": [ {
        "use": "billing",
        "type": "postal",
        "line": [ "P.O. Box 660044" ],
        "city": "Dallas",
        "state": "TX",
        "postalCode": "75266-0044",
        "country": "USA"
      } ]
    },
    "request": {
      "method": "POST",
      "url": "Organization/123456"
    }
  }, {
    "fullUrl": "https://madie.cms.gov/Practitioner/practitioner-123456",
    "resource": {
      "resourceType": "Practitioner",
      "id": "practitioner-123456",
      "identifier": [ {
        "system": "http://hl7.org/fhir/sid/us-npi",
        "value": "123456"
      } ],
      "name": [ {
        "family": "Evil",
        "prefix": [ "Dr" ]
      } ]
    },
    "request": {
      "method": "POST",
      "url": "Practitioner/practitioner-123456"
    }
  }, {
    "fullUrl": "https://madie.cms.gov/MeasureReport/c9bc8103-dff9-42de-9fe8-616e81f580e0",
    "resource": {
      "resourceType": "MeasureReport",
      "id": "c9bc8103-dff9-42de-9fe8-616e81f580e0",
      "meta": {
        "profile": [ "http://hl7.org/fhir/us/cqfmeasures/StructureDefinition/test-case-cqfm" ]
      },
      "contained": [ {
        "resourceType": "Parameters",
        "id": "b6497aca-21d9-4bee-9b1f-64a085a10c37-parameters",
        "parameter": [ {
          "name": "subject",
          "valueString": "87532ec3-3437-4936-a22f-c33c134a9779"
        } ]
      } ],
      "extension": [ {
        "url": "http://hl7.org/fhir/us/cqfmeasures/StructureDefinition/cqfm-inputParameters",
        "valueReference": {
          "reference": "#b6497aca-21d9-4bee-9b1f-64a085a10c37-parameters"
        }
      }, {
        "url": "http://hl7.org/fhir/us/cqfmeasures/StructureDefinition/cqfm-testCaseDescription",
        "valueMarkdown": "Patient is 18 years old with LOS < 120 days during MP with obstetrics VTE diagnosis\n"
      } ],
      "modifierExtension": [ {
        "url": "http://hl7.org/fhir/us/cqfmeasures/StructureDefinition/cqfm-isTestCase",
        "valueBoolean": true
      } ],
      "status": "complete",
      "type": "individual",
      "measure": "https://madie.cms.gov/Measure/VenousThromboembolismProphylaxisFHIR",
      "period": {
        "start": "2025-01-01",
        "end": "2025-12-31"
      },
      "group": [ {
        "population": [ {
          "code": {
            "coding": [ {
              "system": "http://terminology.hl7.org/CodeSystem/measure-population",
              "code": "initial-population",
              "display": "Initial Population"
            } ]
          },
          "count": 0
        }, {
          "code": {
            "coding": [ {
              "system": "http://terminology.hl7.org/CodeSystem/measure-population",
              "code": "denominator",
              "display": "Denominator"
            } ]
          },
          "count": 0
        }, {
          "code": {
            "coding": [ {
              "system": "http://terminology.hl7.org/CodeSystem/measure-population",
              "code": "denominator-exclusion",
              "display": "Denominator Exclusion"
            } ]
          },
          "count": 0
        }, {
          "code": {
            "coding": [ {
              "system": "http://terminology.hl7.org/CodeSystem/measure-population",
              "code": "numerator",
              "display": "Numerator"
            } ]
          },
          "count": 0
        } ]
      } ],
      "evaluatedResource": [ {
        "reference": "https://madie.cms.gov/Patient/87532ec3-3437-4936-a22f-c33c134a9779"
      }, {
        "reference": "https://madie.cms.gov/Encounter/5ca62962b8484628b8de1eaf"
      }, {
        "reference": "https://madie.cms.gov/Coverage/5fa0415b1c76ba66d99592b6"
      }, {
        "reference": "https://madie.cms.gov/Condition/obstetrics-vte-9e0f"
      }, {
        "reference": "https://madie.cms.gov/Organization/123456"
      }, {
        "reference": "https://madie.cms.gov/Practitioner/practitioner-123456"
      } ]
    },
    "request": {
      "method": "POST",
      "url": "MeasureReport/c9bc8103-dff9-42de-9fe8-616e81f580e0"
    }
  } ]
}