{"resourceType":"Bundle","id":"tests-84f231b5-15be-4527-a9db-4209e99954db-bundle","type":"transaction","entry":[{"fullUrl":"https://madie.cms.gov/Patient/84f231b5-15be-4527-a9db-4209e99954db","resource":{"resourceType":"Patient","id":"84f231b5-15be-4527-a9db-4209e99954db","meta":{"profile":["http://hl7.org/fhir/us/qicore/StructureDefinition/qicore-patient"]},"extension":[{"url":"http://hl7.org/fhir/us/core/StructureDefinition/us-core-race","extension":[{"url":"ombCategory","valueCoding":{"system":"urn:oid:2.16.840.1.113883.6.238","code":"1002-5","display":"American Indian or Alaska Native"}},{"url":"text","valueString":"American Indian or Alaska Native"}]},{"url":"http://hl7.org/fhir/us/core/StructureDefinition/us-core-ethnicity","extension":[{"url":"ombCategory","valueCoding":{"system":"urn:oid:2.16.840.1.113883.6.238","code":"2135-2","display":"Hispanic or Latino"}},{"url":"text","valueString":"Hispanic or Latino"}]}],"identifier":[{"type":{"coding":[{"system":"http://terminology.hl7.org/CodeSystem/v2-0203","code":"MR"}]},"system":"https://bonnie-fhir.healthit.gov/","value":"62bc69333e113102f8cedca6"}],"name":[{"family":"DENEXPass","given":["Cystectomy1DayBeforeStagingEdge"]}],"gender":"female","birthDate":"1946-02-01"},"request":{"method":"PUT","url":"Patient/84f231b5-15be-4527-a9db-4209e99954db"}},{"fullUrl":"https://madie.cms.gov/Encounter/office-visit-dca7","resource":{"resourceType":"Encounter","id":"office-visit-dca7","meta":{"profile":["http://hl7.org/fhir/us/qicore/StructureDefinition/qicore-encounter"]},"status":"finished","class":{"system":"http://terminology.hl7.org/CodeSystem/v3-ActCode","code":"AMB","display":"ambulatory"},"type":[{"coding":[{"system":"http://snomed.info/sct","version":"http://snomed.info/sct/731000124108/version/202303","code":"185463005","display":"Visit out of hours (procedure)"}]}],"subject":{"reference":"Patient/84f231b5-15be-4527-a9db-4209e99954db"},"period":{"start":"2025-12-30T08:00:00.000+00:00","end":"2025-12-30T09:15:00.000+00:00"}},"request":{"method":"PUT","url":"Encounter/office-visit-dca7"}},{"fullUrl":"https://madie.cms.gov/Procedure/denex-pass-CMS646v0QICore4-3","resource":{"resourceType":"Procedure","id":"denex-pass-CMS646v0QICore4-3","meta":{"profile":["http://hl7.org/fhir/us/qicore/StructureDefinition/qicore-procedure"]},"extension":[{"url":"http://hl7.org/fhir/us/qicore/StructureDefinition/qicore-recorded","valueDateTime":"2025-06-29T08:00:00.000+00:00"}],"status":"completed","code":{"coding":[{"system":"http://www.ama-assn.org/go/cpt","version":"2023","code":"51585","display":"Cystectomy Done","userSelected":true}]},"subject":{"reference":"Patient/84f231b5-15be-4527-a9db-4209e99954db"},"performedPeriod":{"start":"2025-06-29T08:00:00.000+00:00","end":"2025-06-29T08:15:00.000+00:00"}},"request":{"method":"PUT","url":"Procedure/denex-pass-CMS646v0QICore4-3"}},{"fullUrl":"https://madie.cms.gov/Condition/prostate-cancer-dca8","resource":{"resourceType":"Condition","id":"prostate-cancer-dca8","meta":{"profile":["http://hl7.org/fhir/us/qicore/StructureDefinition/qicore-condition"]},"clinicalStatus":{"coding":[{"system":"http://terminology.hl7.org/CodeSystem/condition-clinical","code":"active","display":"Active"}]},"verificationStatus":{"coding":[{"system":"http://terminology.hl7.org/CodeSystem/condition-ver-status","code":"confirmed","display":"Confirmed"}]},"category":[{"coding":[{"system":"http://terminology.hl7.org/CodeSystem/condition-category","code":"problem-list-item","display":"Problem List Item"}]}],"code":{"coding":[{"system":"http://hl7.org/fhir/sid/icd-10-cm","version":"2023","code":"C67.3","display":"Malignant neoplasm of anterior wall of bladder"}]},"subject":{"reference":"Patient/84f231b5-15be-4527-a9db-4209e99954db"},"onsetDateTime":"2025-06-30T08:00:00.000+00:00"},"request":{"method":"PUT","url":"Condition/prostate-cancer-dca8"}},{"fullUrl":"https://madie.cms.gov/Observation/denex-pass-CMS646v0QICore4-4","resource":{"resourceType":"Observation","id":"denex-pass-CMS646v0QICore4-4","meta":{"profile":["http://hl7.org/fhir/us/qicore/StructureDefinition/qicore-observation"]},"partOf":[{"reference":"Procedure/denex-pass-CMS646v0QICore4-3"}],"status":"final","category":[{"coding":[{"system":"http://terminology.hl7.org/CodeSystem/observation-category","code":"procedure","display":"Procedure"}]}],"code":{"coding":[{"system":"http://loinc.org","version":"2.73","code":"21902-2","display":"Stage group.pathology Cancer"}]},"subject":{"reference":"Patient/84f231b5-15be-4527-a9db-4209e99954db"},"effectivePeriod":{"start":"2025-06-30T08:00:00.000+00:00","end":"2025-06-30T08:15:00.000+00:00"},"issued":"2025-06-30T08:15:00.000+00:00","valueCodeableConcept":{"coding":[{"system":"http://snomed.info/sct","version":"http://snomed.info/sct/731000124108/version/202303","code":"369934002","display":"Tis: Carcinoma in situ (flat tumor of urinary bladder) (finding)"}]}},"request":{"method":"PUT","url":"Observation/denex-pass-CMS646v0QICore4-4"}},{"fullUrl":"https://madie.cms.gov/Practitioner/prac-13143134531634","resource":{"resourceType":"Practitioner","id":"13143134531634","meta":{"profile":["http://hl7.org/fhir/us/qicore/StructureDefinition/qicore-practitioner"]},"identifier":[{"use":"temp","system":"urn:oid:2.16.840.1.113883.4.336","value":"Practitioner-23"}],"active":true,"name":[{"family":"Careful","given":["Adam"],"prefix":["Dr"]}],"address":[{"use":"home","line":["534 Erewhon St"],"city":"PleasantVille","state":"UT","postalCode":"84414"}],"qualification":[{"identifier":[{"system":"http://example.org/UniversityIdentifier","value":"12345"}],"code":{"coding":[{"system":"http://terminology.hl7.org/CodeSystem/v2-0360|2.7","code":"BS","display":"Bachelor of Science"}],"text":"Bachelor of Science"},"period":{"start":"1995"},"issuer":{"display":"Example University"}}]},"request":{"method":"PUT","url":"Practitioner/13143134531634"}},{"fullUrl":"https://madie.cms.gov/Procedure/denex-pass-CMS646v0QICore4-5","resource":{"resourceType":"Procedure","id":"denex-pass-CMS646v0QICore4-5","meta":{"profile":["http://hl7.org/fhir/us/qicore/StructureDefinition/qicore-procedure"]},"extension":[{"url":"http://hl7.org/fhir/us/qicore/StructureDefinition/qicore-recorded","valueDateTime":"2025-06-30T08:00:00.000+00:00"}],"status":"completed","code":{"coding":[{"system":"http://snomed.info/sct","version":"http://snomed.info/sct/731000124108/version/202303","code":"254292007","display":"Tumor staging","userSelected":true}]},"subject":{"reference":"Patient/84f231b5-15be-4527-a9db-4209e99954db"},"performedPeriod":{"start":"2025-06-30T08:00:00.000+00:00","end":"2025-06-30T08:15:00.000+00:00"}},"request":{"method":"PUT","url":"Procedure/denex-pass-CMS646v0QICore4-5"}},{"fullUrl":"https://madie.cms.gov/MeasureReport/89781d46-ef16-4eee-bdf9-43724b2af871","resource":{"resourceType":"MeasureReport","id":"89781d46-ef16-4eee-bdf9-43724b2af871","meta":{"profile":["http://hl7.org/fhir/us/cqfmeasures/StructureDefinition/test-case-cqfm"]},"contained":[{"resourceType":"Parameters","id":"b159be0b-9299-4ed9-91aa-6e2321cab5a0-parameters","parameter":[{"name":"subject","valueString":"84f231b5-15be-4527-a9db-4209e99954db"}]}],"extension":[{"url":"http://hl7.org/fhir/us/cqfmeasures/StructureDefinition/cqfm-inputParameters","valueReference":{"reference":"#b159be0b-9299-4ed9-91aa-6e2321cab5a0-parameters"}},{"url":"http://hl7.org/fhir/us/cqfmeasures/StructureDefinition/cqfm-testCaseDescription","valueMarkdown":"Patient with OV in MP. Bladder cancer diagnosis and cancer staging in MP.  Pt had a cystectomy one day before staging and should be excluded. "}],"modifierExtension":[{"url":"http://hl7.org/fhir/us/cqfmeasures/StructureDefinition/cqfm-isTestCase","valueBoolean":true}],"status":"complete","type":"individual","measure":"https://madie.cms.gov/Measure/IntravesicalBacillusCalmetteGuerinForBladderCancerFHIR","period":{"start":"2025-01-01","end":"2025-12-31"},"group":[{"population":[{"code":{"coding":[{"system":"http://terminology.hl7.org/CodeSystem/measure-population","code":"initial-population","display":"Initial Population"}]},"count":1},{"code":{"coding":[{"system":"http://terminology.hl7.org/CodeSystem/measure-population","code":"denominator","display":"Denominator"}]},"count":1},{"code":{"coding":[{"system":"http://terminology.hl7.org/CodeSystem/measure-population","code":"denominator-exclusion","display":"Denominator Exclusion"}]},"count":1},{"code":{"coding":[{"system":"http://terminology.hl7.org/CodeSystem/measure-population","code":"numerator","display":"Numerator"}]},"count":0},{"code":{"coding":[{"system":"http://terminology.hl7.org/CodeSystem/measure-population","code":"denominator-exception","display":"Denominator Exception"}]},"count":0}]}],"evaluatedResource":[{"reference":"Patient/84f231b5-15be-4527-a9db-4209e99954db"},{"reference":"Encounter/office-visit-dca7"},{"reference":"Procedure/denex-pass-CMS646v0QICore4-3"},{"reference":"Condition/prostate-cancer-dca8"},{"reference":"Observation/denex-pass-CMS646v0QICore4-4"},{"reference":"Practitioner/prac-13143134531634"},{"reference":"Procedure/denex-pass-CMS646v0QICore4-5"}]},"request":{"method":"PUT","url":"MeasureReport/89781d46-ef16-4eee-bdf9-43724b2af871"}}]}