{
  "resourceType": "Bundle",
  "id": "163135134631313",
  "type": "transaction",
  "entry": [ {
    "fullUrl": "https://madie.cms.gov/Patient/595a3383-df44-495d-80c2-2cf3fe6e6c4a",
    "resource": {
      "resourceType": "Patient",
      "id": "595a3383-df44-495d-80c2-2cf3fe6e6c4a",
      "meta": {
        "profile": [ "http://hl7.org/fhir/us/qicore/StructureDefinition/qicore-patient" ]
      },
      "extension": [ {
        "url": "http://hl7.org/fhir/us/core/StructureDefinition/us-core-race",
        "extension": [ {
          "url": "ombCategory",
          "valueCoding": {
            "system": "urn:oid:2.16.840.1.113883.6.238",
            "code": "1002-5",
            "display": "American Indian or Alaska Native"
          }
        }, {
          "url": "text",
          "valueString": "American Indian or Alaska Native"
        } ]
      }, {
        "url": "http://hl7.org/fhir/us/core/StructureDefinition/us-core-ethnicity",
        "extension": [ {
          "url": "ombCategory",
          "valueCoding": {
            "system": "urn:oid:2.16.840.1.113883.6.238",
            "code": "2135-2",
            "display": "Hispanic or Latino"
          }
        }, {
          "url": "text",
          "valueString": "Hispanic or Latino"
        } ]
      } ],
      "identifier": [ {
        "type": {
          "coding": [ {
            "system": "http://terminology.hl7.org/CodeSystem/v2-0203",
            "code": "MR"
          } ]
        },
        "system": "https://bonnie-fhir.healthit.gov/",
        "value": "45651616463131"
      } ],
      "name": [ {
        "family": "IPPass",
        "given": [ "OPConsX2HF" ]
      } ],
      "gender": "male",
      "birthDate": "1942-11-20"
    },
    "request": {
      "method": "PUT",
      "url": "Patient/595a3383-df44-495d-80c2-2cf3fe6e6c4a"
    }
  }, {
    "fullUrl": "https://madie.cms.gov/Encounter/Encounter-6411313131",
    "resource": {
      "resourceType": "Encounter",
      "id": "Encounter-6411313131",
      "meta": {
        "profile": [ "http://hl7.org/fhir/us/qicore/StructureDefinition/qicore-encounter" ]
      },
      "status": "finished",
      "class": {
        "system": "http://terminology.hl7.org/CodeSystem/v3-ActCode",
        "code": "AMB",
        "display": "ambulatory"
      },
      "type": [ {
        "coding": [ {
          "system": "http://snomed.info/sct",
          "version": "http://snomed.info/sct/731000124108/version/202303",
          "code": "281036007",
          "display": "Follow-up consultation (procedure)"
        } ]
      } ],
      "subject": {
        "reference": "Patient/595a3383-df44-495d-80c2-2cf3fe6e6c4a"
      },
      "period": {
        "start": "2025-01-24T08:00:00.000+00:00",
        "end": "2025-01-24T08:15:00.000+00:00"
      }
    },
    "request": {
      "method": "PUT",
      "url": "Encounter/Encounter-6411313131"
    }
  }, {
    "fullUrl": "https://madie.cms.gov/Encounter/Encounter-464631634641",
    "resource": {
      "resourceType": "Encounter",
      "id": "Encounter-464631634641",
      "meta": {
        "profile": [ "http://hl7.org/fhir/us/qicore/StructureDefinition/qicore-encounter" ]
      },
      "status": "finished",
      "class": {
        "system": "http://terminology.hl7.org/CodeSystem/v3-ActCode",
        "code": "AMB",
        "display": "ambulatory"
      },
      "type": [ {
        "coding": [ {
          "system": "http://snomed.info/sct",
          "version": "http://snomed.info/sct/731000124108/version/202303",
          "code": "281036007",
          "display": "Follow-up consultation (procedure)"
        } ]
      } ],
      "subject": {
        "reference": "Patient/595a3383-df44-495d-80c2-2cf3fe6e6c4a"
      },
      "period": {
        "start": "2025-03-28T08:00:00.000+00:00",
        "end": "2025-03-28T08:15:00.000+00:00"
      }
    },
    "request": {
      "method": "PUT",
      "url": "Encounter/Encounter-464631634641"
    }
  }, {
    "fullUrl": "https://madie.cms.gov/Condition/Condition-464131313445",
    "resource": {
      "resourceType": "Condition",
      "id": "Condition-464131313445",
      "meta": {
        "profile": [ "http://hl7.org/fhir/us/qicore/StructureDefinition/qicore-condition" ]
      },
      "clinicalStatus": {
        "coding": [ {
          "system": "http://terminology.hl7.org/CodeSystem/condition-clinical",
          "code": "active",
          "display": "active"
        } ]
      },
      "verificationStatus": {
        "coding": [ {
          "system": "http://terminology.hl7.org/CodeSystem/condition-ver-status",
          "code": "confirmed",
          "display": "Confirmed"
        } ]
      },
      "category": [ {
        "coding": [ {
          "system": "http://terminology.hl7.org/CodeSystem/condition-category",
          "code": "problem-list-item",
          "display": "Problem List Item"
        } ]
      } ],
      "code": {
        "coding": [ {
          "system": "http://snomed.info/sct",
          "version": "http://snomed.info/sct/731000124108/version/202303",
          "code": "10091002",
          "display": "High output heart failure (disorder)",
          "userSelected": true
        } ]
      },
      "subject": {
        "reference": "Patient/595a3383-df44-495d-80c2-2cf3fe6e6c4a"
      },
      "onsetPeriod": {
        "start": "2024-07-05T08:00:00.000+00:00",
        "end": "2025-02-20T08:15:00.000+00:00"
      }
    },
    "request": {
      "method": "PUT",
      "url": "Condition/Condition-464131313445"
    }
  }, {
    "fullUrl": "https://madie.cms.gov/MeasureReport/c61541a0-ba70-45b3-b502-8f176e6e5013",
    "resource": {
      "resourceType": "MeasureReport",
      "id": "c61541a0-ba70-45b3-b502-8f176e6e5013",
      "meta": {
        "profile": [ "http://hl7.org/fhir/us/cqfmeasures/StructureDefinition/test-case-cqfm" ]
      },
      "contained": [ {
        "resourceType": "Parameters",
        "id": "696129c9-a519-44b9-b7b9-2d893437ffff-parameters",
        "parameter": [ {
          "name": "subject",
          "valueString": "595a3383-df44-495d-80c2-2cf3fe6e6c4a"
        } ]
      } ],
      "extension": [ {
        "url": "http://hl7.org/fhir/us/cqfmeasures/StructureDefinition/cqfm-inputParameters",
        "valueReference": {
          "reference": "#696129c9-a519-44b9-b7b9-2d893437ffff-parameters"
        }
      }, {
        "url": "http://hl7.org/fhir/us/cqfmeasures/StructureDefinition/cqfm-testCaseDescription",
        "valueMarkdown": "Patient with HF diagnosis and 2 outpatient consults meeting initial population criteria."
      } ],
      "modifierExtension": [ {
        "url": "http://hl7.org/fhir/us/cqfmeasures/StructureDefinition/cqfm-isTestCase",
        "valueBoolean": true
      } ],
      "status": "complete",
      "type": "individual",
      "measure": "https://madie.cms.gov/Measure/HFACEIorARBorARNIforLVSDFHIR",
      "period": {
        "start": "2025-01-01",
        "end": "2025-12-31"
      },
      "group": [ {
        "population": [ {
          "code": {
            "coding": [ {
              "system": "http://terminology.hl7.org/CodeSystem/measure-population",
              "code": "initial-population",
              "display": "Initial Population"
            } ]
          },
          "count": 1
        }, {
          "code": {
            "coding": [ {
              "system": "http://terminology.hl7.org/CodeSystem/measure-population",
              "code": "denominator",
              "display": "Denominator"
            } ]
          },
          "count": 0
        }, {
          "code": {
            "coding": [ {
              "system": "http://terminology.hl7.org/CodeSystem/measure-population",
              "code": "denominator-exclusion",
              "display": "Denominator Exclusion"
            } ]
          },
          "count": 0
        }, {
          "code": {
            "coding": [ {
              "system": "http://terminology.hl7.org/CodeSystem/measure-population",
              "code": "denominator-exception",
              "display": "Denominator Exception"
            } ]
          },
          "count": 0
        }, {
          "code": {
            "coding": [ {
              "system": "http://terminology.hl7.org/CodeSystem/measure-population",
              "code": "numerator",
              "display": "Numerator"
            } ]
          },
          "count": 0
        } ]
      } ],
      "evaluatedResource": [ {
        "reference": "Patient/595a3383-df44-495d-80c2-2cf3fe6e6c4a"
      }, {
        "reference": "Encounter/Encounter-6411313131"
      }, {
        "reference": "Encounter/Encounter-464631634641"
      }, {
        "reference": "Condition/Condition-464131313445"
      } ]
    },
    "request": {
      "method": "PUT",
      "url": "MeasureReport/c61541a0-ba70-45b3-b502-8f176e6e5013"
    }
  } ]
}