{"resourceType":"Bundle","id":"tests-bdca6f16-1dd2-48c2-81ec-9ebe4d43a027-bundle","type":"transaction","entry":[{"fullUrl":"https://madie.cms.gov/Patient/bdca6f16-1dd2-48c2-81ec-9ebe4d43a027","resource":{"resourceType":"Patient","id":"bdca6f16-1dd2-48c2-81ec-9ebe4d43a027","meta":{"profile":["http://hl7.org/fhir/us/qicore/StructureDefinition/qicore-patient"]},"extension":[{"url":"http://hl7.org/fhir/us/core/StructureDefinition/us-core-race","extension":[{"url":"ombCategory","valueCoding":{"system":"urn:oid:2.16.840.1.113883.6.238","code":"2028-9","display":"Asian","userSelected":true}},{"url":"text","valueString":"Asian"}]},{"url":"http://hl7.org/fhir/us/core/StructureDefinition/us-core-ethnicity","extension":[{"url":"ombCategory","valueCoding":{"system":"urn:oid:2.16.840.1.113883.6.238","code":"2135-2","display":"Hispanic or Latino","userSelected":true}},{"url":"text","valueString":"Hispanic or Latino"}]}],"identifier":[{"type":{"coding":[{"system":"http://terminology.hl7.org/CodeSystem/v2-0203","code":"MR"}]},"system":"http://hospital.smarthealthit.org","value":"999999995"}],"name":[{"family":"Bertha","given":["Betty"]}],"gender":"female","birthDate":"2012-01-01"},"request":{"method":"PUT","url":"Patient/bdca6f16-1dd2-48c2-81ec-9ebe4d43a027"}},{"fullUrl":"https://madie.cms.gov/Condition/Condition-11","resource":{"resourceType":"Condition","id":"96e2a648-d91c-48e9-88f5-857de5b81081","meta":{"profile":["http://hl7.org/fhir/us/qicore/StructureDefinition/qicore-condition"]},"clinicalStatus":{"coding":[{"system":"http://terminology.hl7.org/CodeSystem/condition-clinical","code":"active"}]},"category":[{"coding":[{"system":"http://terminology.hl7.org/CodeSystem/condition-category","code":"problem-list-item","display":"Problem List Item"}]}],"code":{"coding":[{"system":"http://hl7.org/fhir/sid/icd-10-cm","code":"F10.10","display":"Alcohol abuse, uncomplicated"}]},"subject":{"reference":"Patient/bdca6f16-1dd2-48c2-81ec-9ebe4d43a027"},"onsetDateTime":"2025-11-14T00:00:00.000Z"},"request":{"method":"PUT","url":"Condition/96e2a648-d91c-48e9-88f5-857de5b81081"}},{"fullUrl":"https://madie.cms.gov/Encounter/Encounter-11","resource":{"resourceType":"Encounter","id":"67beba7a-2370-4385-a1e8-4683a6466d95","meta":{"profile":["http://hl7.org/fhir/us/qicore/StructureDefinition/qicore-encounter"]},"status":"finished","class":{"system":"http://terminology.hl7.org/CodeSystem/v3-ActCode","code":"AMB","display":"ambulatory"},"type":[{"coding":[{"system":"http://snomed.info/sct","code":"182969009","display":"Dependent drug detoxification (regime/therapy)"}]}],"subject":{"reference":"Patient/bdca6f16-1dd2-48c2-81ec-9ebe4d43a027"},"period":{"start":"2025-11-14T00:00:00.000Z","end":"2025-11-14T01:15:00.000Z"}},"request":{"method":"PUT","url":"Encounter/67beba7a-2370-4385-a1e8-4683a6466d95"}},{"fullUrl":"https://madie.cms.gov/Procedure/Procedure-11","resource":{"resourceType":"Procedure","id":"937129c5-5634-40b0-9612-9b9093875fe4","meta":{"profile":["http://hl7.org/fhir/us/qicore/StructureDefinition/qicore-procedure"]},"extension":[{"url":"http://hl7.org/fhir/us/qicore/StructureDefinition/qicore-recorded","valueDateTime":"2025-11-27T00:00:00.000Z"}],"status":"completed","code":{"coding":[{"system":"http://www.nlm.nih.gov/research/umls/hcpcs","code":"G2067","display":"Medication assisted treatment, methadone; weekly bundle including dispensing and/or administration, substance use counseling, individual and group therapy, and toxicology testing, if performed (provision of the services by a medicare-enrolled opioid treatment program)"}]},"subject":{"reference":"Patient/bdca6f16-1dd2-48c2-81ec-9ebe4d43a027"},"performedPeriod":{"start":"2025-11-27T00:00:00.000Z","end":"2025-11-27T01:00:00.000Z"}},"request":{"method":"PUT","url":"Procedure/937129c5-5634-40b0-9612-9b9093875fe4"}},{"fullUrl":"https://madie.cms.gov/MedicationRequest/MedicationRequest-11","resource":{"resourceType":"MedicationRequest","id":"48fb7eee-c1d3-476e-8c3c-d9f33fe89d66","meta":{"profile":["http://hl7.org/fhir/us/qicore/StructureDefinition/qicore-medicationrequest"]},"status":"completed","intent":"order","medicationCodeableConcept":{"coding":[{"system":"http://www.nlm.nih.gov/research/umls/rxnorm","code":"1010600","display":"buprenorphine 2 MG / naloxone 0.5 MG Sublingual Film"}]},"subject":{"reference":"Patient/bdca6f16-1dd2-48c2-81ec-9ebe4d43a027"},"authoredOn":"2025-12-15T00:00:00.000Z","requester":{"reference":"Practitioner/example"},"dosageInstruction":[{"timing":{"repeat":{"boundsPeriod":{"start":"2025-12-15T00:00:00.000Z","end":"2025-12-15T00:00:00.000Z"}}}}],"dispenseRequest":{"expectedSupplyDuration":{"value":1,"system":"http://unitsofmeasure.org","code":"d"}}},"request":{"method":"PUT","url":"MedicationRequest/48fb7eee-c1d3-476e-8c3c-d9f33fe89d66"}},{"fullUrl":"https://madie.cms.gov/MedicationRequest/MedicationRequest-11.1","resource":{"resourceType":"MedicationRequest","id":"6ac865b2-32ac-4264-9855-90e8983bc204","meta":{"profile":["http://hl7.org/fhir/us/qicore/StructureDefinition/qicore-medicationrequest"]},"status":"completed","intent":"order","medicationCodeableConcept":{"coding":[{"system":"http://www.nlm.nih.gov/research/umls/rxnorm","code":"1010600","display":"buprenorphine 2 MG / naloxone 0.5 MG Sublingual Film"}]},"subject":{"reference":"Patient/bdca6f16-1dd2-48c2-81ec-9ebe4d43a027"},"authoredOn":"2025-12-31T00:00:00.000Z","requester":{"reference":"Practitioner/example"},"dosageInstruction":[{"timing":{"repeat":{"boundsPeriod":{"start":"2025-12-31T00:00:00.000Z","end":"2025-12-31T00:00:00.000Z"}}}}],"dispenseRequest":{"expectedSupplyDuration":{"value":1,"system":"http://unitsofmeasure.org","code":"d"}}},"request":{"method":"PUT","url":"MedicationRequest/6ac865b2-32ac-4264-9855-90e8983bc204"}},{"fullUrl":"https://madie.cms.gov/MeasureReport/8c3f2d5e-43ae-4680-a03e-948cbabe7d1e","resource":{"resourceType":"MeasureReport","id":"8c3f2d5e-43ae-4680-a03e-948cbabe7d1e","meta":{"profile":["http://hl7.org/fhir/us/cqfmeasures/StructureDefinition/test-case-cqfm"]},"contained":[{"resourceType":"Parameters","id":"86e14279-7f07-4c86-aaaa-c372a38c4f49-parameters","parameter":[{"name":"subject","valueString":"bdca6f16-1dd2-48c2-81ec-9ebe4d43a027"}]}],"extension":[{"url":"http://hl7.org/fhir/us/cqfmeasures/StructureDefinition/cqfm-inputParameters","valueReference":{"reference":"#86e14279-7f07-4c86-aaaa-c372a38c4f49-parameters"}},{"url":"http://hl7.org/fhir/us/cqfmeasures/StructureDefinition/cqfm-testCaseDescription","valueMarkdown":"Two Short Acting SUD Medications within 34 days after the Initiation of Treatment for first SUD episode"}],"modifierExtension":[{"url":"http://hl7.org/fhir/us/cqfmeasures/StructureDefinition/cqfm-isTestCase","valueBoolean":true}],"status":"complete","type":"individual","measure":"https://madie.cms.gov/Measure/InitiationandEngagementofSubstanceUseDisorderTreatmentFHIR","period":{"start":"2025-01-01","end":"2025-12-31"},"group":[{"population":[{"code":{"coding":[{"system":"http://terminology.hl7.org/CodeSystem/measure-population","code":"initial-population","display":"Initial Population"}]},"count":1},{"code":{"coding":[{"system":"http://terminology.hl7.org/CodeSystem/measure-population","code":"denominator","display":"Denominator"}]},"count":1},{"code":{"coding":[{"system":"http://terminology.hl7.org/CodeSystem/measure-population","code":"denominator-exclusion","display":"Denominator Exclusion"}]},"count":0},{"code":{"coding":[{"system":"http://terminology.hl7.org/CodeSystem/measure-population","code":"numerator","display":"Numerator"}]},"count":1}]},{"population":[{"code":{"coding":[{"system":"http://terminology.hl7.org/CodeSystem/measure-population","code":"initial-population","display":"Initial Population"}]},"count":1},{"code":{"coding":[{"system":"http://terminology.hl7.org/CodeSystem/measure-population","code":"denominator","display":"Denominator"}]},"count":1},{"code":{"coding":[{"system":"http://terminology.hl7.org/CodeSystem/measure-population","code":"denominator-exclusion","display":"Denominator Exclusion"}]},"count":0},{"code":{"coding":[{"system":"http://terminology.hl7.org/CodeSystem/measure-population","code":"numerator","display":"Numerator"}]},"count":1}]}]},"request":{"method":"PUT","url":"MeasureReport/8c3f2d5e-43ae-4680-a03e-948cbabe7d1e"}}]}