{
  "resourceType": "Bundle",
  "id": "denomfail-nounits",
  "type": "transaction",
  "entry": [ {
    "fullUrl": "https://madie.cms.gov/Patient/389257a0-b69d-4cac-9e6a-e1674b2a6cc0",
    "resource": {
      "resourceType": "Patient",
      "id": "389257a0-b69d-4cac-9e6a-e1674b2a6cc0",
      "meta": {
        "profile": [ "http://hl7.org/fhir/us/core/StructureDefinition/us-core-patient", "http://hl7.org/fhir/us/qicore/StructureDefinition/qicore-patient" ]
      },
      "extension": [ {
        "url": "http://hl7.org/fhir/us/core/StructureDefinition/us-core-race",
        "extension": [ {
          "url": "ombCategory",
          "valueCoding": {
            "system": "urn:oid:2.16.840.1.113883.6.238",
            "code": "2028-9",
            "display": "Asian"
          }
        }, {
          "url": "text",
          "valueString": "Asian"
        } ]
      }, {
        "url": "http://hl7.org/fhir/us/core/StructureDefinition/us-core-ethnicity",
        "extension": [ {
          "url": "ombCategory",
          "valueCoding": {
            "system": "urn:oid:2.16.840.1.113883.6.238",
            "code": "2135-2",
            "display": "Hispanic or Latino"
          }
        }, {
          "url": "text",
          "valueString": "Hispanic or Latino"
        } ]
      } ],
      "identifier": [ {
        "system": "http://hospital.smarthealthit.org",
        "value": "999999995"
      } ],
      "name": [ {
        "family": "NoUnits",
        "given": [ "DENOMFail" ]
      } ],
      "gender": "female",
      "birthDate": "1984-06-12"
    },
    "request": {
      "method": "PUT",
      "url": "Patient/389257a0-b69d-4cac-9e6a-e1674b2a6cc0"
    }
  }, {
    "fullUrl": "https://madie.cms.gov/Observation/1cb40229-6e28-4d16-9ce9-fd3819224b6e",
    "resource": {
      "resourceType": "Observation",
      "id": "1cb40229-6e28-4d16-9ce9-fd3819224b6e",
      "meta": {
        "profile": [ "http://hl7.org/fhir/us/qicore/StructureDefinition/qicore-observation" ]
      },
      "status": "final",
      "category": [ {
        "coding": [ {
          "system": "http://terminology.hl7.org/CodeSystem/observation-category",
          "code": "imaging",
          "display": "Imaging"
        } ]
      } ],
      "code": {
        "coding": [ {
          "system": "http://loinc.org",
          "code": "96914-7",
          "display": "CT dose and image quality category"
        } ],
        "text": "CT dose and image quality category"
      },
      "subject": {
        "reference": "Patient/389257a0-b69d-4cac-9e6a-e1674b2a6cc0"
      },
      "effectiveDateTime": "2025-05-02T00:00:00.000Z",
      "valueCodeableConcept": {
        "coding": [ {
          "system": "http://loinc.org",
          "code": "LA31752-1",
          "display": "Abdomen and Pelvis Low Dose"
        } ]
      },
      "component": [ {
        "code": {
          "coding": [ {
            "system": "http://loinc.org",
            "code": "96912-1",
            "display": "Calculated CT global noise"
          } ]
        },
        "valueQuantity": {
          "value": 63
        }
      }, {
        "code": {
          "coding": [ {
            "system": "http://loinc.org",
            "code": "96913-9",
            "display": "Calculated CT size-adjusted dose"
          } ]
        },
        "valueQuantity": {
          "value": 597
        }
      } ]
    },
    "request": {
      "method": "PUT",
      "url": "Observation/1cb40229-6e28-4d16-9ce9-fd3819224b6e"
    }
  }, {
    "fullUrl": "https://madie.cms.gov/MeasureReport/894fc9eb-a010-472f-b637-fc9b7baac1a0",
    "resource": {
      "resourceType": "MeasureReport",
      "id": "894fc9eb-a010-472f-b637-fc9b7baac1a0",
      "meta": {
        "profile": [ "http://hl7.org/fhir/us/cqfmeasures/StructureDefinition/test-case-cqfm" ]
      },
      "contained": [ {
        "resourceType": "Parameters",
        "id": "6ece4b98-1a1b-4efd-87d9-4450e54afeaa-parameters",
        "parameter": [ {
          "name": "subject",
          "valueString": "389257a0-b69d-4cac-9e6a-e1674b2a6cc0"
        } ]
      } ],
      "extension": [ {
        "url": "http://hl7.org/fhir/us/cqfmeasures/StructureDefinition/cqfm-inputParameters",
        "valueReference": {
          "reference": "#6ece4b98-1a1b-4efd-87d9-4450e54afeaa-parameters"
        }
      }, {
        "url": "http://hl7.org/fhir/us/cqfmeasures/StructureDefinition/cqfm-testCaseDescription",
        "valueMarkdown": "Patient has a valid scan but the units are missing on the results"
      } ],
      "modifierExtension": [ {
        "url": "http://hl7.org/fhir/us/cqfmeasures/StructureDefinition/cqfm-isTestCase",
        "valueBoolean": true
      } ],
      "status": "complete",
      "type": "individual",
      "measure": "https://madie.cms.gov/Measure/AlaraCTClinicalFHIR",
      "period": {
        "start": "2025-01-01",
        "end": "2025-12-31"
      },
      "group": [ {
        "population": [ {
          "code": {
            "coding": [ {
              "system": "http://terminology.hl7.org/CodeSystem/measure-population",
              "code": "initial-population",
              "display": "Initial Population"
            } ]
          },
          "count": 1
        }, {
          "code": {
            "coding": [ {
              "system": "http://terminology.hl7.org/CodeSystem/measure-population",
              "code": "denominator",
              "display": "Denominator"
            } ]
          },
          "count": 0
        }, {
          "code": {
            "coding": [ {
              "system": "http://terminology.hl7.org/CodeSystem/measure-population",
              "code": "denominator-exclusion",
              "display": "Denominator Exclusion"
            } ]
          },
          "count": 0
        }, {
          "code": {
            "coding": [ {
              "system": "http://terminology.hl7.org/CodeSystem/measure-population",
              "code": "numerator",
              "display": "Numerator"
            } ]
          },
          "count": 0
        } ]
      } ],
      "evaluatedResource": [ {
        "reference": "Patient/389257a0-b69d-4cac-9e6a-e1674b2a6cc0"
      }, {
        "reference": "Observation/1cb40229-6e28-4d16-9ce9-fd3819224b6e"
      } ]
    },
    "request": {
      "method": "PUT",
      "url": "MeasureReport/894fc9eb-a010-472f-b637-fc9b7baac1a0"
    }
  } ]
}