{
  "resourceType": "Bundle",
  "id": "Patient-11-DENEXPass-ActiveMedsB4MP",
  "type": "transaction",
  "entry": [ {
    "fullUrl": "https://madie.cms.gov/Patient/c2885ae7-8b97-41e6-a6e4-3c0927995ad5",
    "resource": {
      "resourceType": "Patient",
      "id": "c2885ae7-8b97-41e6-a6e4-3c0927995ad5",
      "meta": {
        "profile": [ "http://hl7.org/fhir/us/qicore/StructureDefinition/qicore-patient" ]
      },
      "extension": [ {
        "url": "http://hl7.org/fhir/us/core/StructureDefinition/us-core-race",
        "extension": [ {
          "url": "ombCategory",
          "valueCoding": {
            "system": "urn:oid:2.16.840.1.113883.6.238",
            "code": "2028-9",
            "display": "Asian"
          }
        }, {
          "url": "text",
          "valueString": "Asian"
        } ]
      }, {
        "url": "http://hl7.org/fhir/us/core/StructureDefinition/us-core-ethnicity",
        "extension": [ {
          "url": "ombCategory",
          "valueCoding": {
            "system": "urn:oid:2.16.840.1.113883.6.238",
            "code": "2135-2",
            "display": "Hispanic or Latino"
          }
        }, {
          "url": "text",
          "valueString": "Hispanic or Latino"
        } ]
      } ],
      "identifier": [ {
        "system": "http://hospital.smarthealthit.org",
        "value": "999999995"
      } ],
      "name": [ {
        "family": "Bertha",
        "given": [ "Betty" ]
      } ],
      "gender": "female",
      "birthDate": "1975-01-01"
    },
    "request": {
      "method": "PUT",
      "url": "Patient/c2885ae7-8b97-41e6-a6e4-3c0927995ad5"
    }
  }, {
    "fullUrl": "https://madie.cms.gov/Encounter/Encounter-11",
    "resource": {
      "resourceType": "Encounter",
      "id": "Encounter-11",
      "meta": {
        "profile": [ "http://hl7.org/fhir/us/qicore/StructureDefinition/qicore-encounter" ]
      },
      "status": "finished",
      "class": {
        "system": "http://terminology.hl7.org/CodeSystem/v3-ActCode",
        "code": "AMB",
        "display": "ambulatory"
      },
      "type": [ {
        "coding": [ {
          "system": "http://snomed.info/sct",
          "code": "185317003",
          "display": "Telephone encounter (procedure)"
        } ]
      } ],
      "subject": {
        "reference": "Patient/c2885ae7-8b97-41e6-a6e4-3c0927995ad5"
      },
      "period": {
        "start": "2025-01-01T01:00:00.000Z",
        "end": "2025-01-01T01:15:00.000Z"
      }
    },
    "request": {
      "method": "PUT",
      "url": "Encounter/Encounter-11"
    }
  }, {
    "fullUrl": "https://madie.cms.gov/Procedure/Procedure-11",
    "resource": {
      "resourceType": "Procedure",
      "id": "Procedure-11",
      "meta": {
        "profile": [ "http://hl7.org/fhir/us/qicore/StructureDefinition/qicore-procedure" ]
      },
      "extension": [ {
        "url": "http://hl7.org/fhir/us/qicore/StructureDefinition/qicore-recorded",
        "valueDateTime": "2024-12-31T00:00:00.000Z"
      } ],
      "status": "completed",
      "code": {
        "coding": [ {
          "system": "http://snomed.info/sct",
          "code": "112860004",
          "display": "Hemigastrectomy by abdominal approach (procedure)"
        } ]
      },
      "subject": {
        "reference": "Patient/c2885ae7-8b97-41e6-a6e4-3c0927995ad5"
      },
      "performedPeriod": {
        "start": "2024-12-31T00:00:00.000Z",
        "end": "2024-12-31T01:00:00.000Z"
      }
    },
    "request": {
      "method": "PUT",
      "url": "Procedure/Procedure-11"
    }
  }, {
    "fullUrl": "https://madie.cms.gov/MedicationRequest/MedicationRequest-11",
    "resource": {
      "resourceType": "MedicationRequest",
      "id": "MedicationRequest-11",
      "meta": {
        "profile": [ "http://hl7.org/fhir/us/qicore/StructureDefinition/qicore-medicationrequest" ]
      },
      "status": "active",
      "intent": "plan",
      "category": [ {
        "coding": [ {
          "system": "http://terminology.hl7.org/CodeSystem/medicationrequest-category",
          "code": "discharge",
          "display": "Discharge"
        } ]
      } ],
      "medicationCodeableConcept": {
        "coding": [ {
          "system": "http://www.nlm.nih.gov/research/umls/rxnorm",
          "code": "199224",
          "display": "anastrozole 1 MG Oral Tablet",
          "userSelected": true
        } ]
      },
      "subject": {
        "reference": "Patient/c2885ae7-8b97-41e6-a6e4-3c0927995ad5"
      },
      "authoredOn": "2024-12-31T00:00:00.000Z",
      "requester": {
        "reference": "Practitioner/example"
      }
    },
    "request": {
      "method": "PUT",
      "url": "MedicationRequest/MedicationRequest-11"
    }
  }, {
    "fullUrl": "https://madie.cms.gov/Observation/Observation-11",
    "resource": {
      "resourceType": "Observation",
      "id": "Observation-11",
      "meta": {
        "profile": [ "http://hl7.org/fhir/us/qicore/StructureDefinition/qicore-observation" ]
      },
      "status": "final",
      "category": [ {
        "coding": [ {
          "system": "http://terminology.hl7.org/CodeSystem/observation-category",
          "code": "survey",
          "display": "Survey"
        } ],
        "text": "Survey"
      } ],
      "code": {
        "coding": [ {
          "system": "http://snomed.info/sct",
          "code": "391096007",
          "display": "Family history: Maternal hip fracture (situation)"
        } ]
      },
      "subject": {
        "reference": "Patient/c2885ae7-8b97-41e6-a6e4-3c0927995ad5"
      },
      "effectiveDateTime": "2024-12-31T00:00:00.000Z"
    },
    "request": {
      "method": "PUT",
      "url": "Observation/Observation-11"
    }
  }, {
    "fullUrl": "https://madie.cms.gov/MeasureReport/dba6f52e-7372-4804-83dc-33fc42118cc5",
    "resource": {
      "resourceType": "MeasureReport",
      "id": "dba6f52e-7372-4804-83dc-33fc42118cc5",
      "meta": {
        "profile": [ "http://hl7.org/fhir/us/cqfmeasures/StructureDefinition/test-case-cqfm" ]
      },
      "contained": [ {
        "resourceType": "Parameters",
        "id": "7bc5cac0-f30a-45e3-9aaf-45fd6acf8d59-parameters",
        "parameter": [ {
          "name": "subject",
          "valueString": "c2885ae7-8b97-41e6-a6e4-3c0927995ad5"
        } ]
      } ],
      "extension": [ {
        "url": "http://hl7.org/fhir/us/cqfmeasures/StructureDefinition/cqfm-inputParameters",
        "valueReference": {
          "reference": "#7bc5cac0-f30a-45e3-9aaf-45fd6acf8d59-parameters"
        }
      }, {
        "url": "http://hl7.org/fhir/us/cqfmeasures/StructureDefinition/cqfm-testCaseDescription",
        "valueMarkdown": "Patient has active medication before the measurement period."
      } ],
      "modifierExtension": [ {
        "url": "http://hl7.org/fhir/us/cqfmeasures/StructureDefinition/cqfm-isTestCase",
        "valueBoolean": true
      } ],
      "status": "complete",
      "type": "individual",
      "measure": "https://madie.cms.gov/Measure/AppropriateDXAScansForWomenUnder65FHIR",
      "period": {
        "start": "2025-01-01",
        "end": "2025-12-31"
      },
      "group": [ {
        "population": [ {
          "code": {
            "coding": [ {
              "system": "http://terminology.hl7.org/CodeSystem/measure-population",
              "code": "initial-population",
              "display": "Initial Population"
            } ]
          },
          "count": 1
        }, {
          "code": {
            "coding": [ {
              "system": "http://terminology.hl7.org/CodeSystem/measure-population",
              "code": "denominator",
              "display": "Denominator"
            } ]
          },
          "count": 1
        }, {
          "code": {
            "coding": [ {
              "system": "http://terminology.hl7.org/CodeSystem/measure-population",
              "code": "denominator-exclusion",
              "display": "Denominator Exclusion"
            } ]
          },
          "count": 1
        }, {
          "code": {
            "coding": [ {
              "system": "http://terminology.hl7.org/CodeSystem/measure-population",
              "code": "numerator",
              "display": "Numerator"
            } ]
          },
          "count": 0
        }, {
          "code": {
            "coding": [ {
              "system": "http://terminology.hl7.org/CodeSystem/measure-population",
              "code": "numerator-exclusion",
              "display": "Numerator Exclusion"
            } ]
          },
          "count": 0
        } ]
      } ],
      "evaluatedResource": [ {
        "reference": "Patient/c2885ae7-8b97-41e6-a6e4-3c0927995ad5"
      }, {
        "reference": "Encounter/Encounter-11"
      }, {
        "reference": "Procedure/Procedure-11"
      }, {
        "reference": "MedicationRequest/MedicationRequest-11"
      }, {
        "reference": "Observation/Observation-11"
      } ]
    },
    "request": {
      "method": "PUT",
      "url": "MeasureReport/dba6f52e-7372-4804-83dc-33fc42118cc5"
    }
  } ]
}