{
  "resourceType": "Bundle",
  "id": "630307cb0968f8012247851f",
  "type": "transaction",
  "entry": [ {
    "fullUrl": "https://madie.cms.gov/Patient/624b9027-60eb-4661-9a15-344644178c39",
    "resource": {
      "resourceType": "Patient",
      "id": "624b9027-60eb-4661-9a15-344644178c39",
      "meta": {
        "profile": [ "http://hl7.org/fhir/us/qicore/StructureDefinition/qicore-patient" ]
      },
      "extension": [ {
        "url": "http://hl7.org/fhir/us/core/StructureDefinition/us-core-race",
        "extension": [ {
          "url": "ombCategory",
          "valueCoding": {
            "system": "urn:oid:2.16.840.1.113883.6.238",
            "code": "1002-5",
            "display": "American Indian or Alaska Native"
          }
        }, {
          "url": "detailed",
          "valueCoding": {
            "system": "urn:oid:2.16.840.1.113883.6.238",
            "code": "1072-8",
            "display": "Mexican American Indian"
          }
        }, {
          "url": "text",
          "valueString": "Mexican American Indian"
        } ]
      }, {
        "url": "http://hl7.org/fhir/us/core/StructureDefinition/us-core-ethnicity",
        "extension": [ {
          "url": "ombCategory",
          "valueCoding": {
            "system": "urn:oid:2.16.840.1.113883.6.238",
            "code": "2135-2",
            "display": "Hispanic or Latino"
          }
        }, {
          "url": "detailed",
          "valueCoding": {
            "system": "urn:oid:2.16.840.1.113883.6.238",
            "code": "2149-3",
            "display": "Mexican American"
          }
        }, {
          "url": "text",
          "valueString": "Hispanic or Latino"
        } ]
      } ],
      "identifier": [ {
        "type": {
          "coding": [ {
            "system": "http://terminology.hl7.org/CodeSystem/v2-0203",
            "code": "MR"
          } ]
        },
        "system": "https://bonnie-fhir.healthit.gov/",
        "value": "630307cb0968f8012247851f"
      } ],
      "name": [ {
        "family": "NUMERPopStrat1Pass",
        "given": [ "AssessmentInRelevantPeriod" ]
      } ],
      "gender": "female",
      "birthDate": "2012-01-01"
    },
    "request": {
      "method": "POST",
      "url": "Patient/624b9027-60eb-4661-9a15-344644178c39"
    }
  }, {
    "fullUrl": "https://madie.cms.gov/Encounter/846816468613163156",
    "resource": {
      "resourceType": "Encounter",
      "id": "846816468613163156",
      "meta": {
        "profile": [ "http://hl7.org/fhir/us/qicore/StructureDefinition/qicore-encounter" ]
      },
      "status": "finished",
      "class": {
        "system": "http://terminology.hl7.org/CodeSystem/v3-ActCode",
        "code": "AMB",
        "display": "ambulatory"
      },
      "type": [ {
        "coding": [ {
          "system": "http://www.ama-assn.org/go/cpt",
          "version": "2024",
          "code": "90791"
        } ]
      } ],
      "subject": {
        "reference": "Patient/624b9027-60eb-4661-9a15-344644178c39"
      },
      "period": {
        "start": "2024-02-25T14:30:00+00:00",
        "end": "2024-02-25T14:50:00+00:00"
      },
      "length": {
        "value": 0,
        "unit": "days"
      }
    },
    "request": {
      "method": "POST",
      "url": "Encounter/846816468613163156"
    }
  }, {
    "fullUrl": "https://madie.cms.gov/Observation/98778613516461352131315",
    "resource": {
      "resourceType": "Observation",
      "id": "98778613516461352131315",
      "meta": {
        "profile": [ "http://hl7.org/fhir/us/qicore/StructureDefinition/qicore-observation" ]
      },
      "status": "final",
      "category": [ {
        "coding": [ {
          "system": "http://terminology.hl7.org/CodeSystem/observation-category",
          "code": "survey",
          "display": "Survey"
        } ]
      } ],
      "code": {
        "coding": [ {
          "system": "http://loinc.org",
          "version": "2.76",
          "code": "44261-6"
        } ]
      },
      "subject": {
        "reference": "Patient/624b9027-60eb-4661-9a15-344644178c39"
      },
      "effectiveDateTime": "2024-02-25T14:35:00+00:00",
      "valueInteger": 10
    },
    "request": {
      "method": "POST",
      "url": "Observation/98778613516461352131315"
    }
  }, {
    "fullUrl": "https://madie.cms.gov/Observation/784651651684135131313",
    "resource": {
      "resourceType": "Observation",
      "id": "784651651684135131313",
      "meta": {
        "profile": [ "http://hl7.org/fhir/us/qicore/StructureDefinition/qicore-observation" ]
      },
      "status": "final",
      "category": [ {
        "coding": [ {
          "system": "http://terminology.hl7.org/CodeSystem/observation-category",
          "code": "survey",
          "display": "Survey"
        } ]
      } ],
      "code": {
        "coding": [ {
          "system": "http://loinc.org",
          "version": "2.76",
          "code": "44261-6"
        } ]
      },
      "subject": {
        "reference": "Patient/624b9027-60eb-4661-9a15-344644178c39"
      },
      "effectiveDateTime": "2025-02-19T14:30:00+00:00",
      "valueInteger": 2
    },
    "request": {
      "method": "POST",
      "url": "Observation/784651651684135131313"
    }
  }, {
    "fullUrl": "https://madie.cms.gov/Condition/18961651646466486545",
    "resource": {
      "resourceType": "Condition",
      "id": "18961651646466486545",
      "meta": {
        "profile": [ "http://hl7.org/fhir/us/qicore/StructureDefinition/qicore-condition" ]
      },
      "clinicalStatus": {
        "coding": [ {
          "system": "http://terminology.hl7.org/CodeSystem/condition-clinical",
          "code": "active",
          "display": "active"
        } ]
      },
      "verificationStatus": {
        "coding": [ {
          "system": "http://terminology.hl7.org/CodeSystem/condition-ver-status",
          "code": "confirmed"
        } ]
      },
      "category": [ {
        "coding": [ {
          "system": "http://terminology.hl7.org/CodeSystem/condition-category",
          "code": "problem-list-item",
          "display": "Problem List Item"
        } ]
      } ],
      "code": {
        "coding": [ {
          "system": "http://hl7.org/fhir/sid/icd-10-cm",
          "version": "2024",
          "code": "F32.9"
        } ]
      },
      "subject": {
        "reference": "Patient/624b9027-60eb-4661-9a15-344644178c39"
      },
      "onsetDateTime": "2024-02-25T14:35:00+00:00"
    },
    "request": {
      "method": "POST",
      "url": "Condition/18961651646466486545"
    }
  }, {
    "fullUrl": "https://madie.cms.gov/MeasureReport/dd4583ff-12f6-4556-971f-129c94a0b4cf",
    "resource": {
      "resourceType": "MeasureReport",
      "id": "dd4583ff-12f6-4556-971f-129c94a0b4cf",
      "meta": {
        "profile": [ "http://hl7.org/fhir/us/cqfmeasures/StructureDefinition/test-case-cqfm" ]
      },
      "contained": [ {
        "resourceType": "Parameters",
        "id": "a26a72ca-c865-4e84-b28a-6b1e73310462-parameters",
        "parameter": [ {
          "name": "subject",
          "valueString": "624b9027-60eb-4661-9a15-344644178c39"
        } ]
      } ],
      "extension": [ {
        "url": "http://hl7.org/fhir/us/cqfmeasures/StructureDefinition/cqfm-inputParameters",
        "valueReference": {
          "reference": "#a26a72ca-c865-4e84-b28a-6b1e73310462-parameters"
        }
      }, {
        "url": "http://hl7.org/fhir/us/cqfmeasures/StructureDefinition/cqfm-testCaseDescription",
        "valueMarkdown": "Patient is 12 years old and has a Major Depression diagnosis, an encounter with PHQ-9>9 during Denom ID period and a PHQ-9<5 during MAP. Patient passes num and falls into strat 1."
      } ],
      "modifierExtension": [ {
        "url": "http://hl7.org/fhir/us/cqfmeasures/StructureDefinition/cqfm-isTestCase",
        "valueBoolean": true
      } ],
      "status": "complete",
      "type": "individual",
      "measure": "https://madie.cms.gov/Measure/DepressionRemissionatTwelveMonthsFHIR",
      "period": {
        "start": "2025-01-01",
        "end": "2025-12-31"
      },
      "group": [ {
        "population": [ {
          "code": {
            "coding": [ {
              "system": "http://terminology.hl7.org/CodeSystem/measure-population",
              "code": "initial-population",
              "display": "Initial Population"
            } ]
          },
          "count": 1
        }, {
          "code": {
            "coding": [ {
              "system": "http://terminology.hl7.org/CodeSystem/measure-population",
              "code": "denominator",
              "display": "Denominator"
            } ]
          },
          "count": 1
        }, {
          "code": {
            "coding": [ {
              "system": "http://terminology.hl7.org/CodeSystem/measure-population",
              "code": "denominator-exclusion",
              "display": "Denominator Exclusion"
            } ]
          },
          "count": 0
        }, {
          "code": {
            "coding": [ {
              "system": "http://terminology.hl7.org/CodeSystem/measure-population",
              "code": "numerator",
              "display": "Numerator"
            } ]
          },
          "count": 1
        } ]
      } ],
      "evaluatedResource": [ {
        "reference": "https://madie.cms.gov/Patient/624b9027-60eb-4661-9a15-344644178c39"
      }, {
        "reference": "https://madie.cms.gov/Encounter/846816468613163156"
      }, {
        "reference": "https://madie.cms.gov/Observation/98778613516461352131315"
      }, {
        "reference": "https://madie.cms.gov/Observation/784651651684135131313"
      }, {
        "reference": "https://madie.cms.gov/Condition/18961651646466486545"
      } ]
    },
    "request": {
      "method": "POST",
      "url": "MeasureReport/dd4583ff-12f6-4556-971f-129c94a0b4cf"
    }
  } ]
}