{
  "resourceType": "Bundle",
  "id": "NUMPass-InitOblique90DaysB4THAFUOblique425DaysAfterTHA",
  "type": "transaction",
  "entry": [ {
    "fullUrl": "https://madie.cms.gov/Patient/e1e74089-fc55-45de-8b9c-a03227754390",
    "resource": {
      "resourceType": "Patient",
      "id": "e1e74089-fc55-45de-8b9c-a03227754390",
      "meta": {
        "profile": [ "http://hl7.org/fhir/us/qicore/StructureDefinition/qicore-patient" ]
      },
      "extension": [ {
        "url": "http://hl7.org/fhir/us/core/StructureDefinition/us-core-race",
        "extension": [ {
          "url": "ombCategory",
          "valueCoding": {
            "system": "urn:oid:2.16.840.1.113883.6.238",
            "code": "2028-9",
            "display": "Asian"
          }
        }, {
          "url": "text",
          "valueString": "Asian"
        } ]
      }, {
        "url": "http://hl7.org/fhir/us/core/StructureDefinition/us-core-ethnicity",
        "extension": [ {
          "url": "ombCategory",
          "valueCoding": {
            "system": "urn:oid:2.16.840.1.113883.6.238",
            "code": "2135-2",
            "display": "Hispanic or Latino"
          }
        }, {
          "url": "text",
          "valueString": "Hispanic or Latino"
        } ]
      } ],
      "identifier": [ {
        "system": "http://hospital.smarthealthit.org",
        "value": "999999995"
      } ],
      "name": [ {
        "family": "Bertha",
        "given": [ "Betty" ]
      } ],
      "gender": "female",
      "birthDate": "2006-01-01"
    },
    "request": {
      "method": "POST",
      "url": "Patient/e1e74089-fc55-45de-8b9c-a03227754390"
    }
  }, {
    "fullUrl": "https://madie.cms.gov/Procedure/Procedure-42",
    "resource": {
      "resourceType": "Procedure",
      "id": "Procedure-42",
      "meta": {
        "profile": [ "http://hl7.org/fhir/us/qicore/StructureDefinition/qicore-procedure" ]
      },
      "extension": [ {
        "url": "http://hl7.org/fhir/us/qicore/StructureDefinition/qicore-recorded",
        "valueDateTime": "2023-11-01T00:00:00.000Z"
      } ],
      "status": "completed",
      "code": {
        "coding": [ {
          "system": "http://www.cms.gov/Medicare/Coding/ICD10",
          "code": "0SR9019",
          "display": "Replacement of Right Hip Joint with Metal Synthetic Substitute, Cemented, Open Approach"
        } ]
      },
      "subject": {
        "reference": "Patient/e1e74089-fc55-45de-8b9c-a03227754390"
      },
      "performedPeriod": {
        "start": "2023-11-01T00:00:00.000Z",
        "end": "2023-11-01T01:00:00.000Z"
      }
    },
    "request": {
      "method": "POST",
      "url": "Procedure/Procedure-42"
    }
  }, {
    "fullUrl": "https://madie.cms.gov/Encounter/Encounter-42",
    "resource": {
      "resourceType": "Encounter",
      "id": "Encounter-42",
      "meta": {
        "profile": [ "http://hl7.org/fhir/us/qicore/StructureDefinition/qicore-encounter" ]
      },
      "status": "finished",
      "class": {
        "system": "http://terminology.hl7.org/CodeSystem/v3-ActCode",
        "code": "AMB",
        "display": "ambulatory"
      },
      "type": [ {
        "coding": [ {
          "system": "http://snomed.info/sct",
          "code": "281036007",
          "display": "Follow-up consultation (procedure)"
        } ]
      } ],
      "subject": {
        "reference": "Patient/e1e74089-fc55-45de-8b9c-a03227754390"
      },
      "period": {
        "start": "2024-11-01T00:00:00.000Z",
        "end": "2024-11-01T01:15:00.000Z"
      }
    },
    "request": {
      "method": "POST",
      "url": "Encounter/Encounter-42"
    }
  }, {
    "fullUrl": "https://madie.cms.gov/Observation/Observation-42.1-1",
    "resource": {
      "resourceType": "Observation",
      "id": "Observation-42.1-1",
      "meta": {
        "profile": [ "http://hl7.org/fhir/us/qicore/StructureDefinition/qicore-observation" ]
      },
      "status": "final",
      "category": [ {
        "coding": [ {
          "system": "http://terminology.hl7.org/CodeSystem/observation-category",
          "code": "survey"
        } ]
      } ],
      "code": {
        "coding": [ {
          "system": "http://loinc.org",
          "code": "72026-8",
          "display": "VR-12 Mental component summary (MCS) score - oblique method T-score"
        } ]
      },
      "subject": {
        "reference": "Patient/e1e74089-fc55-45de-8b9c-a03227754390"
      },
      "effectivePeriod": {
        "start": "2023-08-03T00:00:00.000Z",
        "end": "2023-08-03T01:00:00.000Z"
      },
      "valueInteger": 60
    },
    "request": {
      "method": "POST",
      "url": "Observation/Observation-42.1-1"
    }
  }, {
    "fullUrl": "https://madie.cms.gov/Observation/Observation-42.1-2",
    "resource": {
      "resourceType": "Observation",
      "id": "Observation-42.1-2",
      "meta": {
        "profile": [ "http://hl7.org/fhir/us/qicore/StructureDefinition/qicore-observation" ]
      },
      "status": "final",
      "category": [ {
        "coding": [ {
          "system": "http://terminology.hl7.org/CodeSystem/observation-category",
          "code": "survey"
        } ]
      } ],
      "code": {
        "coding": [ {
          "system": "http://loinc.org",
          "code": "72025-0",
          "display": "VR-12 Physical component summary (PCS) score - oblique method T-score"
        } ]
      },
      "subject": {
        "reference": "Patient/e1e74089-fc55-45de-8b9c-a03227754390"
      },
      "effectivePeriod": {
        "start": "2023-08-03T00:00:00.000Z",
        "end": "2023-08-03T01:00:00.000Z"
      },
      "valueInteger": 60
    },
    "request": {
      "method": "POST",
      "url": "Observation/Observation-42.1-2"
    }
  }, {
    "fullUrl": "https://madie.cms.gov/Observation/Observation-42.2-1",
    "resource": {
      "resourceType": "Observation",
      "id": "Observation-42.2-1",
      "meta": {
        "profile": [ "http://hl7.org/fhir/us/qicore/StructureDefinition/qicore-observation" ]
      },
      "status": "final",
      "category": [ {
        "coding": [ {
          "system": "http://terminology.hl7.org/CodeSystem/observation-category",
          "code": "survey"
        } ]
      } ],
      "code": {
        "coding": [ {
          "system": "http://loinc.org",
          "code": "72026-8",
          "display": "VR-12 Mental component summary (MCS) score - oblique method T-score"
        } ]
      },
      "subject": {
        "reference": "Patient/e1e74089-fc55-45de-8b9c-a03227754390"
      },
      "effectivePeriod": {
        "start": "2024-12-30T00:00:00.000Z",
        "end": "2024-12-30T01:00:00.000Z"
      },
      "valueInteger": 60
    },
    "request": {
      "method": "POST",
      "url": "Observation/Observation-42.2-1"
    }
  }, {
    "fullUrl": "https://madie.cms.gov/Observation/Observation-42.2-2",
    "resource": {
      "resourceType": "Observation",
      "id": "Observation-42.2-2",
      "meta": {
        "profile": [ "http://hl7.org/fhir/us/qicore/StructureDefinition/qicore-observation" ]
      },
      "status": "final",
      "category": [ {
        "coding": [ {
          "system": "http://terminology.hl7.org/CodeSystem/observation-category",
          "code": "survey"
        } ]
      } ],
      "code": {
        "coding": [ {
          "system": "http://loinc.org",
          "code": "72025-0",
          "display": "VR-12 Physical component summary (PCS) score - oblique method T-score"
        } ]
      },
      "subject": {
        "reference": "Patient/e1e74089-fc55-45de-8b9c-a03227754390"
      },
      "effectivePeriod": {
        "start": "2024-12-30T00:00:00.000Z",
        "end": "2024-12-30T01:00:00.000Z"
      },
      "valueInteger": 60
    },
    "request": {
      "method": "POST",
      "url": "Observation/Observation-42.2-2"
    }
  }, {
    "fullUrl": "https://madie.cms.gov/MeasureReport/c46566f5-cd44-4a4e-9e1b-eb4c40c77292",
    "resource": {
      "resourceType": "MeasureReport",
      "id": "c46566f5-cd44-4a4e-9e1b-eb4c40c77292",
      "meta": {
        "profile": [ "http://hl7.org/fhir/us/cqfmeasures/StructureDefinition/test-case-cqfm" ]
      },
      "contained": [ {
        "resourceType": "Parameters",
        "id": "47a86e48-08d0-4f23-b032-dba7349b98ca-parameters",
        "parameter": [ {
          "name": "subject",
          "valueString": "e1e74089-fc55-45de-8b9c-a03227754390"
        } ]
      } ],
      "extension": [ {
        "url": "http://hl7.org/fhir/us/cqfmeasures/StructureDefinition/cqfm-inputParameters",
        "valueReference": {
          "reference": "#47a86e48-08d0-4f23-b032-dba7349b98ca-parameters"
        }
      }, {
        "url": "http://hl7.org/fhir/us/cqfmeasures/StructureDefinition/cqfm-testCaseDescription",
        "valueMarkdown": "Patient w/ a THA Procedure 11/1, Initial Hip Assessment Oblique 90 days before THA Procedure(8/3), and FollowUp Hip Assessment Oblique 425 days after THA Procedure (12/30)"
      } ],
      "modifierExtension": [ {
        "url": "http://hl7.org/fhir/us/cqfmeasures/StructureDefinition/cqfm-isTestCase",
        "valueBoolean": true
      } ],
      "status": "complete",
      "type": "individual",
      "measure": "https://madie.cms.gov/Measure/FunctionalStatusAssessmentforTotalHipReplacementFHIR",
      "period": {
        "start": "2025-01-01",
        "end": "2025-12-31"
      },
      "group": [ {
        "population": [ {
          "code": {
            "coding": [ {
              "system": "http://terminology.hl7.org/CodeSystem/measure-population",
              "code": "initial-population",
              "display": "Initial Population"
            } ]
          },
          "count": 1
        }, {
          "code": {
            "coding": [ {
              "system": "http://terminology.hl7.org/CodeSystem/measure-population",
              "code": "denominator",
              "display": "Denominator"
            } ]
          },
          "count": 1
        }, {
          "code": {
            "coding": [ {
              "system": "http://terminology.hl7.org/CodeSystem/measure-population",
              "code": "denominator-exclusion",
              "display": "Denominator Exclusion"
            } ]
          },
          "count": 0
        }, {
          "code": {
            "coding": [ {
              "system": "http://terminology.hl7.org/CodeSystem/measure-population",
              "code": "numerator",
              "display": "Numerator"
            } ]
          },
          "count": 1
        } ]
      } ],
      "evaluatedResource": [ {
        "reference": "https://madie.cms.gov/Patient/e1e74089-fc55-45de-8b9c-a03227754390"
      }, {
        "reference": "https://madie.cms.gov/Procedure/Procedure-42"
      }, {
        "reference": "https://madie.cms.gov/Encounter/Encounter-42"
      }, {
        "reference": "https://madie.cms.gov/Observation/Observation-42.1-1"
      }, {
        "reference": "https://madie.cms.gov/Observation/Observation-42.1-2"
      }, {
        "reference": "https://madie.cms.gov/Observation/Observation-42.2-1"
      }, {
        "reference": "https://madie.cms.gov/Observation/Observation-42.2-2"
      } ]
    },
    "request": {
      "method": "POST",
      "url": "MeasureReport/c46566f5-cd44-4a4e-9e1b-eb4c40c77292"
    }
  } ]
}