{
  "resourceType": "Bundle",
  "id": "654351316543135131",
  "type": "transaction",
  "entry": [ {
    "fullUrl": "https://madie.cms.gov/Patient/ad471f87-60ee-48b9-95b8-80f35eb230dd",
    "resource": {
      "resourceType": "Patient",
      "id": "ad471f87-60ee-48b9-95b8-80f35eb230dd",
      "meta": {
        "profile": [ "http://hl7.org/fhir/us/qicore/StructureDefinition/qicore-patient" ]
      },
      "extension": [ {
        "url": "http://hl7.org/fhir/us/core/StructureDefinition/us-core-race",
        "extension": [ {
          "url": "ombCategory",
          "valueCoding": {
            "system": "urn:oid:2.16.840.1.113883.6.238",
            "code": "1002-5",
            "display": "American Indian or Alaska Native"
          }
        }, {
          "url": "text",
          "valueString": "American Indian or Alaska Native"
        } ]
      }, {
        "url": "http://hl7.org/fhir/us/core/StructureDefinition/us-core-ethnicity",
        "extension": [ {
          "url": "ombCategory",
          "valueCoding": {
            "system": "urn:oid:2.16.840.1.113883.6.238",
            "code": "2135-2",
            "display": "Hispanic or Latino"
          }
        }, {
          "url": "text",
          "valueString": "Hispanic or Latino"
        } ]
      } ],
      "identifier": [ {
        "type": {
          "coding": [ {
            "system": "http://terminology.hl7.org/CodeSystem/v2-0203",
            "code": "MR"
          } ]
        },
        "system": "https://bonnie-fhir.healthit.gov/",
        "value": "643510313413131"
      } ],
      "name": [ {
        "family": "DENEXCEPFail",
        "given": [ "PregDxAfterEnc" ]
      } ],
      "gender": "female",
      "birthDate": "1994-01-02"
    },
    "request": {
      "method": "PUT",
      "url": "Patient/ad471f87-60ee-48b9-95b8-80f35eb230dd"
    }
  }, {
    "fullUrl": "https://madie.cms.gov/Encounter/1657161681631315",
    "resource": {
      "resourceType": "Encounter",
      "id": "1657161681631315",
      "meta": {
        "profile": [ "http://hl7.org/fhir/us/qicore/StructureDefinition/qicore-encounter" ]
      },
      "status": "finished",
      "class": {
        "system": "http://terminology.hl7.org/CodeSystem/v3-ActCode",
        "code": "AMB",
        "display": "ambulatory"
      },
      "type": [ {
        "coding": [ {
          "system": "http://snomed.info/sct",
          "version": "http://snomed.info/sct/731000124108/version/202303",
          "code": "185463005",
          "display": "Visit out of hours (procedure)"
        } ]
      } ],
      "subject": {
        "reference": "Patient/ad471f87-60ee-48b9-95b8-80f35eb230dd"
      },
      "period": {
        "start": "2025-02-17T08:00:00.000+00:00",
        "end": "2025-02-17T08:15:00.000+00:00"
      }
    },
    "request": {
      "method": "PUT",
      "url": "Encounter/1657161681631315"
    }
  }, {
    "fullUrl": "https://madie.cms.gov/Encounter/6546846516846846",
    "resource": {
      "resourceType": "Encounter",
      "id": "6546846516846846",
      "meta": {
        "profile": [ "http://hl7.org/fhir/us/qicore/StructureDefinition/qicore-encounter" ]
      },
      "status": "finished",
      "class": {
        "system": "http://terminology.hl7.org/CodeSystem/v3-ActCode",
        "code": "AMB",
        "display": "ambulatory"
      },
      "type": [ {
        "coding": [ {
          "system": "http://snomed.info/sct",
          "version": "http://snomed.info/sct/731000124108/version/202303",
          "code": "185316007",
          "display": "Indirect encounter (procedure)"
        } ]
      } ],
      "subject": {
        "reference": "Patient/ad471f87-60ee-48b9-95b8-80f35eb230dd"
      },
      "period": {
        "start": "2025-12-30T08:00:00.000+00:00",
        "end": "2025-12-30T08:15:00.000+00:00"
      }
    },
    "request": {
      "method": "PUT",
      "url": "Encounter/6546846516846846"
    }
  }, {
    "fullUrl": "https://madie.cms.gov/Condition/164681313161331",
    "resource": {
      "resourceType": "Condition",
      "id": "164681313161331",
      "meta": {
        "profile": [ "http://hl7.org/fhir/us/qicore/StructureDefinition/qicore-condition" ]
      },
      "clinicalStatus": {
        "coding": [ {
          "system": "http://terminology.hl7.org/CodeSystem/condition-clinical",
          "code": "active",
          "display": "Active"
        } ]
      },
      "verificationStatus": {
        "coding": [ {
          "system": "http://terminology.hl7.org/CodeSystem/condition-ver-status",
          "code": "confirmed",
          "display": "Confirmed"
        } ]
      },
      "category": [ {
        "coding": [ {
          "system": "http://terminology.hl7.org/CodeSystem/condition-category",
          "code": "problem-list-item",
          "display": "Problem List Item"
        } ]
      } ],
      "code": {
        "coding": [ {
          "system": "http://snomed.info/sct",
          "version": "http://snomed.info/sct/731000124108/version/202303",
          "code": "10091002",
          "display": "High output heart failure (disorder)"
        } ]
      },
      "subject": {
        "reference": "Patient/ad471f87-60ee-48b9-95b8-80f35eb230dd"
      },
      "onsetPeriod": {
        "start": "2025-02-17T08:00:00.000+00:00"
      }
    },
    "request": {
      "method": "PUT",
      "url": "Condition/164681313161331"
    }
  }, {
    "fullUrl": "https://madie.cms.gov/Observation/4894116161331",
    "resource": {
      "resourceType": "Observation",
      "id": "4894116161331",
      "meta": {
        "profile": [ "http://hl7.org/fhir/us/qicore/StructureDefinition/qicore-observation" ]
      },
      "status": "final",
      "category": [ {
        "coding": [ {
          "system": "http://terminology.hl7.org/CodeSystem/observation-category",
          "code": "imaging",
          "display": "Imaging"
        } ],
        "text": "Imaging"
      } ],
      "code": {
        "coding": [ {
          "system": "http://loinc.org",
          "version": "2.73",
          "code": "10230-1",
          "display": "Left ventricular Ejection fraction"
        } ]
      },
      "subject": {
        "reference": "Patient/ad471f87-60ee-48b9-95b8-80f35eb230dd"
      },
      "effectiveDateTime": "2025-02-17T08:00:00.000+00:00",
      "valueQuantity": {
        "value": 35.0,
        "unit": "%",
        "system": "http://unitsofmeasure.org",
        "code": "%"
      }
    },
    "request": {
      "method": "PUT",
      "url": "Observation/4894116161331"
    }
  }, {
    "fullUrl": "https://madie.cms.gov/Condition/35354186131331",
    "resource": {
      "resourceType": "Condition",
      "id": "35354186131331",
      "meta": {
        "profile": [ "http://hl7.org/fhir/us/qicore/StructureDefinition/qicore-condition" ]
      },
      "clinicalStatus": {
        "coding": [ {
          "system": "http://terminology.hl7.org/CodeSystem/condition-clinical",
          "code": "active",
          "display": "Active"
        } ]
      },
      "verificationStatus": {
        "coding": [ {
          "system": "http://terminology.hl7.org/CodeSystem/condition-ver-status",
          "code": "refuted",
          "display": "Refuted"
        } ]
      },
      "category": [ {
        "coding": [ {
          "system": "http://terminology.hl7.org/CodeSystem/condition-category",
          "code": "problem-list-item",
          "display": "Problem List Item"
        } ]
      } ],
      "code": {
        "coding": [ {
          "system": "http://snomed.info/sct",
          "version": "http://snomed.info/sct/731000124108/version/202303",
          "code": "11082009",
          "display": "Abnormal pregnancy (finding)"
        } ]
      },
      "subject": {
        "reference": "Patient/ad471f87-60ee-48b9-95b8-80f35eb230dd"
      },
      "onsetPeriod": {
        "start": "2025-05-02T08:00:00.000+00:00"
      }
    },
    "request": {
      "method": "PUT",
      "url": "Condition/35354186131331"
    }
  }, {
    "fullUrl": "https://madie.cms.gov/MeasureReport/be2cce71-4d44-4dc9-83ed-2613bd514a33",
    "resource": {
      "resourceType": "MeasureReport",
      "id": "be2cce71-4d44-4dc9-83ed-2613bd514a33",
      "meta": {
        "profile": [ "http://hl7.org/fhir/us/cqfmeasures/StructureDefinition/test-case-cqfm" ]
      },
      "contained": [ {
        "resourceType": "Parameters",
        "id": "006f08bb-5c1c-4f75-85ad-d12d5f5da674-parameters",
        "parameter": [ {
          "name": "subject",
          "valueString": "ad471f87-60ee-48b9-95b8-80f35eb230dd"
        } ]
      } ],
      "extension": [ {
        "url": "http://hl7.org/fhir/us/cqfmeasures/StructureDefinition/cqfm-inputParameters",
        "valueReference": {
          "reference": "#006f08bb-5c1c-4f75-85ad-d12d5f5da674-parameters"
        }
      }, {
        "url": "http://hl7.org/fhir/us/cqfmeasures/StructureDefinition/cqfm-testCaseDescription",
        "valueMarkdown": "Patient has a pregnancy diagnosis which would qualify them for denominator exception except the onset date is after the encounter period."
      } ],
      "modifierExtension": [ {
        "url": "http://hl7.org/fhir/us/cqfmeasures/StructureDefinition/cqfm-isTestCase",
        "valueBoolean": true
      } ],
      "status": "complete",
      "type": "individual",
      "measure": "https://madie.cms.gov/Measure/HFACEIorARBorARNIforLVSDFHIR",
      "period": {
        "start": "2025-01-01",
        "end": "2025-12-31"
      },
      "group": [ {
        "population": [ {
          "code": {
            "coding": [ {
              "system": "http://terminology.hl7.org/CodeSystem/measure-population",
              "code": "initial-population",
              "display": "Initial Population"
            } ]
          },
          "count": 1
        }, {
          "code": {
            "coding": [ {
              "system": "http://terminology.hl7.org/CodeSystem/measure-population",
              "code": "denominator",
              "display": "Denominator"
            } ]
          },
          "count": 1
        }, {
          "code": {
            "coding": [ {
              "system": "http://terminology.hl7.org/CodeSystem/measure-population",
              "code": "denominator-exclusion",
              "display": "Denominator Exclusion"
            } ]
          },
          "count": 0
        }, {
          "code": {
            "coding": [ {
              "system": "http://terminology.hl7.org/CodeSystem/measure-population",
              "code": "denominator-exception",
              "display": "Denominator Exception"
            } ]
          },
          "count": 0
        }, {
          "code": {
            "coding": [ {
              "system": "http://terminology.hl7.org/CodeSystem/measure-population",
              "code": "numerator",
              "display": "Numerator"
            } ]
          },
          "count": 0
        } ]
      } ],
      "evaluatedResource": [ {
        "reference": "Patient/ad471f87-60ee-48b9-95b8-80f35eb230dd"
      }, {
        "reference": "Encounter/1657161681631315"
      }, {
        "reference": "Encounter/6546846516846846"
      }, {
        "reference": "Condition/164681313161331"
      }, {
        "reference": "Observation/4894116161331"
      }, {
        "reference": "Condition/35354186131331"
      } ]
    },
    "request": {
      "method": "PUT",
      "url": "MeasureReport/be2cce71-4d44-4dc9-83ed-2613bd514a33"
    }
  } ]
}