{
  "resourceType": "Bundle",
  "id": "3413134154643684861",
  "type": "transaction",
  "entry": [ {
    "fullUrl": "https://madie.cms.gov/Patient/3b1c14dc-b18c-40d9-b848-c750ea4ffe5e",
    "resource": {
      "resourceType": "Patient",
      "id": "3b1c14dc-b18c-40d9-b848-c750ea4ffe5e",
      "meta": {
        "profile": [ "http://hl7.org/fhir/us/qicore/StructureDefinition/qicore-patient" ]
      },
      "extension": [ {
        "url": "http://hl7.org/fhir/us/core/StructureDefinition/us-core-race",
        "extension": [ {
          "url": "ombCategory",
          "valueCoding": {
            "system": "urn:oid:2.16.840.1.113883.6.238",
            "code": "1002-5",
            "display": "American Indian or Alaska Native"
          }
        }, {
          "url": "text",
          "valueString": "American Indian or Alaska Native"
        } ]
      }, {
        "url": "http://hl7.org/fhir/us/core/StructureDefinition/us-core-ethnicity",
        "extension": [ {
          "url": "ombCategory",
          "valueCoding": {
            "system": "urn:oid:2.16.840.1.113883.6.238",
            "code": "2135-2",
            "display": "Hispanic or Latino"
          }
        }, {
          "url": "text",
          "valueString": "Hispanic or Latino"
        } ]
      } ],
      "identifier": [ {
        "type": {
          "coding": [ {
            "system": "http://terminology.hl7.org/CodeSystem/v2-0203",
            "code": "MR"
          } ]
        },
        "system": "https://bonnie-fhir.healthit.gov/",
        "value": "654684982103"
      } ],
      "name": [ {
        "family": "DENEXFail",
        "given": [ "LVADAfterEnc" ]
      } ],
      "gender": "male",
      "birthDate": "1968-06-14"
    },
    "request": {
      "method": "PUT",
      "url": "Patient/3b1c14dc-b18c-40d9-b848-c750ea4ffe5e"
    }
  }, {
    "fullUrl": "https://madie.cms.gov/Encounter/15413852655",
    "resource": {
      "resourceType": "Encounter",
      "id": "15413852655",
      "meta": {
        "profile": [ "http://hl7.org/fhir/us/qicore/StructureDefinition/qicore-encounter" ]
      },
      "status": "finished",
      "class": {
        "system": "http://terminology.hl7.org/CodeSystem/v3-ActCode",
        "code": "AMB",
        "display": "ambulatory"
      },
      "type": [ {
        "coding": [ {
          "system": "http://snomed.info/sct",
          "version": "http://snomed.info/sct/731000124108/version/202303",
          "code": "185463005",
          "display": "Visit out of hours (procedure)"
        } ]
      } ],
      "subject": {
        "reference": "Patient/3b1c14dc-b18c-40d9-b848-c750ea4ffe5e"
      },
      "period": {
        "start": "2025-03-31T08:00:00.000+00:00",
        "end": "2025-03-31T08:15:00.000+00:00"
      }
    },
    "request": {
      "method": "PUT",
      "url": "Encounter/15413852655"
    }
  }, {
    "fullUrl": "https://madie.cms.gov/Encounter/87983413451",
    "resource": {
      "resourceType": "Encounter",
      "id": "87983413451",
      "meta": {
        "profile": [ "http://hl7.org/fhir/us/qicore/StructureDefinition/qicore-encounter" ]
      },
      "status": "finished",
      "class": {
        "system": "http://terminology.hl7.org/CodeSystem/v3-ActCode",
        "code": "AMB",
        "display": "ambulatory"
      },
      "type": [ {
        "coding": [ {
          "system": "http://snomed.info/sct",
          "version": "http://snomed.info/sct/731000124108/version/202303",
          "code": "185463005",
          "display": "Visit out of hours (procedure)"
        } ]
      } ],
      "subject": {
        "reference": "Patient/3b1c14dc-b18c-40d9-b848-c750ea4ffe5e"
      },
      "period": {
        "start": "2025-05-15T08:00:00.000+00:00",
        "end": "2025-05-15T08:15:00.000+00:00"
      }
    },
    "request": {
      "method": "PUT",
      "url": "Encounter/87983413451"
    }
  }, {
    "fullUrl": "https://madie.cms.gov/Condition/7968416161",
    "resource": {
      "resourceType": "Condition",
      "id": "7968416161",
      "meta": {
        "profile": [ "http://hl7.org/fhir/us/qicore/StructureDefinition/qicore-condition" ]
      },
      "clinicalStatus": {
        "coding": [ {
          "system": "http://terminology.hl7.org/CodeSystem/condition-clinical",
          "code": "active",
          "display": "active"
        } ]
      },
      "verificationStatus": {
        "coding": [ {
          "system": "http://terminology.hl7.org/CodeSystem/condition-ver-status",
          "code": "confirmed",
          "display": "Confirmed"
        } ]
      },
      "category": [ {
        "coding": [ {
          "system": "http://terminology.hl7.org/CodeSystem/condition-category",
          "code": "problem-list-item",
          "display": "Problem List Item"
        } ]
      } ],
      "code": {
        "coding": [ {
          "system": "http://snomed.info/sct",
          "version": "http://snomed.info/sct/731000124108/version/202303",
          "code": "10091002",
          "display": "High output heart failure (disorder)"
        } ]
      },
      "subject": {
        "reference": "Patient/3b1c14dc-b18c-40d9-b848-c750ea4ffe5e"
      },
      "onsetPeriod": {
        "start": "2024-05-17T08:00:00.000+00:00"
      }
    },
    "request": {
      "method": "PUT",
      "url": "Condition/7968416161"
    }
  }, {
    "fullUrl": "https://madie.cms.gov/Condition/46841313541",
    "resource": {
      "resourceType": "Condition",
      "id": "46841313541",
      "meta": {
        "profile": [ "http://hl7.org/fhir/us/qicore/StructureDefinition/qicore-condition" ]
      },
      "clinicalStatus": {
        "coding": [ {
          "system": "http://terminology.hl7.org/CodeSystem/condition-clinical",
          "code": "active",
          "display": "active"
        } ]
      },
      "verificationStatus": {
        "coding": [ {
          "system": "http://terminology.hl7.org/CodeSystem/condition-ver-status",
          "code": "confirmed",
          "display": "Confirmed"
        } ]
      },
      "category": [ {
        "coding": [ {
          "system": "http://terminology.hl7.org/CodeSystem/condition-category",
          "code": "problem-list-item",
          "display": "Problem List Item"
        } ]
      } ],
      "code": {
        "coding": [ {
          "system": "http://snomed.info/sct",
          "version": "http://snomed.info/sct/731000124108/version/202303",
          "code": "981000124106",
          "display": "Moderate left ventricular systolic dysfunction (disorder)"
        } ]
      },
      "subject": {
        "reference": "Patient/3b1c14dc-b18c-40d9-b848-c750ea4ffe5e"
      },
      "onsetPeriod": {
        "start": "2025-03-25T08:00:00.000+00:00",
        "end": "2025-03-30T08:15:00.000+00:00"
      }
    },
    "request": {
      "method": "PUT",
      "url": "Condition/46841313541"
    }
  }, {
    "fullUrl": "https://madie.cms.gov/Procedure/5464113643",
    "resource": {
      "resourceType": "Procedure",
      "id": "5464113643",
      "meta": {
        "profile": [ "http://hl7.org/fhir/us/qicore/StructureDefinition/qicore-procedure" ]
      },
      "extension": [ {
        "url": "http://hl7.org/fhir/us/qicore/StructureDefinition/qicore-recorded",
        "valueDateTime": "2025-08-01T08:00:00.000+00:00"
      } ],
      "status": "completed",
      "code": {
        "coding": [ {
          "system": "http://snomed.info/sct",
          "version": "http://snomed.info/sct/731000124108/version/202303",
          "code": "232967006",
          "display": "Implantation of left ventricular assist device (procedure)"
        } ]
      },
      "subject": {
        "reference": "Patient/3b1c14dc-b18c-40d9-b848-c750ea4ffe5e"
      },
      "performedDateTime": "2025-05-15T18:15:00.000+00:00"
    },
    "request": {
      "method": "PUT",
      "url": "Procedure/5464113643"
    }
  }, {
    "fullUrl": "https://madie.cms.gov/MeasureReport/fad4d785-8d43-466f-8947-abd59cb59f82",
    "resource": {
      "resourceType": "MeasureReport",
      "id": "fad4d785-8d43-466f-8947-abd59cb59f82",
      "meta": {
        "profile": [ "http://hl7.org/fhir/us/cqfmeasures/StructureDefinition/test-case-cqfm" ]
      },
      "contained": [ {
        "resourceType": "Parameters",
        "id": "53768f3b-8fc1-431a-ace4-7db2a4b34357-parameters",
        "parameter": [ {
          "name": "subject",
          "valueString": "3b1c14dc-b18c-40d9-b848-c750ea4ffe5e"
        } ]
      } ],
      "extension": [ {
        "url": "http://hl7.org/fhir/us/cqfmeasures/StructureDefinition/cqfm-inputParameters",
        "valueReference": {
          "reference": "#53768f3b-8fc1-431a-ace4-7db2a4b34357-parameters"
        }
      }, {
        "url": "http://hl7.org/fhir/us/cqfmeasures/StructureDefinition/cqfm-testCaseDescription",
        "valueMarkdown": "Patient with HF dx and 2 encounters and LVSD does not fall into denominator exclusion because LV assisted device procedure is outside encounter window"
      } ],
      "modifierExtension": [ {
        "url": "http://hl7.org/fhir/us/cqfmeasures/StructureDefinition/cqfm-isTestCase",
        "valueBoolean": true
      } ],
      "status": "complete",
      "type": "individual",
      "measure": "https://madie.cms.gov/Measure/HFACEIorARBorARNIforLVSDFHIR",
      "period": {
        "start": "2025-01-01",
        "end": "2025-12-31"
      },
      "group": [ {
        "population": [ {
          "code": {
            "coding": [ {
              "system": "http://terminology.hl7.org/CodeSystem/measure-population",
              "code": "initial-population",
              "display": "Initial Population"
            } ]
          },
          "count": 1
        }, {
          "code": {
            "coding": [ {
              "system": "http://terminology.hl7.org/CodeSystem/measure-population",
              "code": "denominator",
              "display": "Denominator"
            } ]
          },
          "count": 1
        }, {
          "code": {
            "coding": [ {
              "system": "http://terminology.hl7.org/CodeSystem/measure-population",
              "code": "denominator-exclusion",
              "display": "Denominator Exclusion"
            } ]
          },
          "count": 0
        }, {
          "code": {
            "coding": [ {
              "system": "http://terminology.hl7.org/CodeSystem/measure-population",
              "code": "denominator-exception",
              "display": "Denominator Exception"
            } ]
          },
          "count": 0
        }, {
          "code": {
            "coding": [ {
              "system": "http://terminology.hl7.org/CodeSystem/measure-population",
              "code": "numerator",
              "display": "Numerator"
            } ]
          },
          "count": 0
        } ]
      } ],
      "evaluatedResource": [ {
        "reference": "Patient/3b1c14dc-b18c-40d9-b848-c750ea4ffe5e"
      }, {
        "reference": "Encounter/15413852655"
      }, {
        "reference": "Encounter/87983413451"
      }, {
        "reference": "Condition/7968416161"
      }, {
        "reference": "Condition/46841313541"
      }, {
        "reference": "Procedure/5464113643"
      } ]
    },
    "request": {
      "method": "PUT",
      "url": "MeasureReport/fad4d785-8d43-466f-8947-abd59cb59f82"
    }
  } ]
}