{"resourceType":"Bundle","id":"tests-e755fc51-8047-4f1a-9d15-d53963496185-bundle","type":"transaction","entry":[{"fullUrl":"https://madie.cms.gov/Patient/e755fc51-8047-4f1a-9d15-d53963496185","resource":{"resourceType":"Patient","id":"e755fc51-8047-4f1a-9d15-d53963496185","meta":{"profile":["http://hl7.org/fhir/us/qicore/StructureDefinition/qicore-patient"]},"extension":[{"url":"http://hl7.org/fhir/us/core/StructureDefinition/us-core-race","extension":[{"url":"ombCategory","valueCoding":{"system":"urn:oid:2.16.840.1.113883.6.238","code":"1002-5","display":"American Indian or Alaska Native","userSelected":true}},{"url":"text","valueString":"American Indian or Alaska Native"}]},{"url":"http://hl7.org/fhir/us/core/StructureDefinition/us-core-ethnicity","extension":[{"url":"ombCategory","valueCoding":{"system":"urn:oid:2.16.840.1.113883.6.238","code":"2135-2","display":"Hispanic or Latino","userSelected":true}},{"url":"text","valueString":"Hispanic or Latino"}]}],"identifier":[{"type":{"coding":[{"system":"http://terminology.hl7.org/CodeSystem/v2-0203","code":"MR"}]},"system":"https://bonnie-fhir.healthit.gov/","value":"464631315435131"}],"name":[{"family":"IPFail","given":["EncHasNoEndDate"]}],"gender":"female","birthDate":"1981-04-02"},"request":{"method":"PUT","url":"Patient/e755fc51-8047-4f1a-9d15-d53963496185"}},{"fullUrl":"https://madie.cms.gov/Encounter/684651316135131","resource":{"resourceType":"Encounter","id":"e52d5860-9b1d-4c04-b1b6-63b604e95982","meta":{"profile":["http://hl7.org/fhir/us/qicore/StructureDefinition/qicore-encounter"]},"status":"finished","class":{"system":"http://terminology.hl7.org/CodeSystem/v3-ActCode","code":"AMB","display":"ambulatory"},"type":[{"coding":[{"system":"http://snomed.info/sct","version":"http://snomed.info/sct/731000124108/version/20240301","code":"185463005","display":"Visit out of hours (procedure)"}]}],"subject":{"reference":"Patient/e755fc51-8047-4f1a-9d15-d53963496185"},"period":{"start":"2025-03-31T08:00:00.000+00:00"}},"request":{"method":"PUT","url":"Encounter/e52d5860-9b1d-4c04-b1b6-63b604e95982"}},{"fullUrl":"https://madie.cms.gov/Encounter/43451368464651","resource":{"resourceType":"Encounter","id":"84a7cdf7-9455-49c9-89a2-f7f954d2a500","meta":{"profile":["http://hl7.org/fhir/us/qicore/StructureDefinition/qicore-encounter"]},"status":"finished","class":{"system":"http://terminology.hl7.org/CodeSystem/v3-ActCode","code":"AMB","display":"ambulatory"},"type":[{"coding":[{"system":"http://snomed.info/sct","version":"http://snomed.info/sct/731000124108/version/20240301","code":"185463005","display":"Visit out of hours (procedure)"}]}],"subject":{"reference":"Patient/e755fc51-8047-4f1a-9d15-d53963496185"},"period":{"start":"2025-05-15T08:00:00.000+00:00","end":"2025-05-15T08:15:00.000+00:00"}},"request":{"method":"PUT","url":"Encounter/84a7cdf7-9455-49c9-89a2-f7f954d2a500"}},{"fullUrl":"https://madie.cms.gov/Condition/87781546435135","resource":{"resourceType":"Condition","id":"fd55905a-d384-4eb1-af81-a81fbda04354","meta":{"profile":["http://hl7.org/fhir/us/qicore/StructureDefinition/qicore-condition"]},"clinicalStatus":{"coding":[{"system":"http://terminology.hl7.org/CodeSystem/condition-clinical","code":"active","display":"active"}]},"verificationStatus":{"coding":[{"system":"http://terminology.hl7.org/CodeSystem/condition-ver-status","code":"confirmed","display":"Confirmed"}]},"category":[{"coding":[{"system":"http://terminology.hl7.org/CodeSystem/condition-category","code":"problem-list-item","display":"Problem List Item"}]}],"code":{"coding":[{"system":"http://snomed.info/sct","version":"http://snomed.info/sct/731000124108/version/20240301","code":"10091002","display":"High output heart failure (disorder)"}]},"subject":{"reference":"Patient/e755fc51-8047-4f1a-9d15-d53963496185"},"onsetPeriod":{"start":"2024-05-17T08:00:00.000+00:00"}},"request":{"method":"PUT","url":"Condition/fd55905a-d384-4eb1-af81-a81fbda04354"}},{"fullUrl":"https://madie.cms.gov/Condition/21464531351531","resource":{"resourceType":"Condition","id":"2e3dd6b3-3979-49a3-84d1-f79eb9e31ab3","meta":{"profile":["http://hl7.org/fhir/us/qicore/StructureDefinition/qicore-condition"]},"clinicalStatus":{"coding":[{"system":"http://terminology.hl7.org/CodeSystem/condition-clinical","code":"active","display":"Active"}]},"verificationStatus":{"coding":[{"system":"http://terminology.hl7.org/CodeSystem/condition-ver-status","code":"confirmed","display":"Confirmed"}]},"category":[{"coding":[{"system":"http://terminology.hl7.org/CodeSystem/condition-category","code":"problem-list-item","display":"Problem List Item"}]}],"code":{"coding":[{"system":"http://snomed.info/sct","version":"http://snomed.info/sct/731000124108/version/20240301","code":"981000124106","display":"Moderate left ventricular systolic dysfunction (disorder)"}]},"subject":{"reference":"Patient/e755fc51-8047-4f1a-9d15-d53963496185"},"onsetPeriod":{"start":"2025-03-25T08:00:00.000+00:00","end":"2025-03-30T08:15:00.000+00:00"}},"request":{"method":"PUT","url":"Condition/2e3dd6b3-3979-49a3-84d1-f79eb9e31ab3"}},{"fullUrl":"https://madie.cms.gov/MeasureReport/d499fe71-41b6-4fa3-847e-4b2b0c7e240e","resource":{"resourceType":"MeasureReport","id":"d499fe71-41b6-4fa3-847e-4b2b0c7e240e","meta":{"profile":["http://hl7.org/fhir/us/cqfmeasures/StructureDefinition/test-case-cqfm"]},"contained":[{"resourceType":"Parameters","id":"6a31e70f-c729-449f-a2c6-af75d4b28af4-parameters","parameter":[{"name":"subject","valueString":"e755fc51-8047-4f1a-9d15-d53963496185"}]}],"extension":[{"url":"http://hl7.org/fhir/us/cqfmeasures/StructureDefinition/cqfm-inputParameters","valueReference":{"reference":"#6a31e70f-c729-449f-a2c6-af75d4b28af4-parameters"}},{"url":"http://hl7.org/fhir/us/cqfmeasures/StructureDefinition/cqfm-testCaseDescription","valueMarkdown":"Patient has Heart failure Dx and 2 Encounters in MP but first encounter does not qualify due to not having ending period."}],"modifierExtension":[{"url":"http://hl7.org/fhir/us/cqfmeasures/StructureDefinition/cqfm-isTestCase","valueBoolean":true}],"status":"complete","type":"individual","measure":"https://madie.cms.gov/Measure/HFACEIorARBorARNIforLVSDFHIR","period":{"start":"2025-01-01","end":"2025-12-31"},"group":[{"population":[{"code":{"coding":[{"system":"http://terminology.hl7.org/CodeSystem/measure-population","code":"initial-population","display":"Initial Population"}]},"count":0},{"code":{"coding":[{"system":"http://terminology.hl7.org/CodeSystem/measure-population","code":"denominator","display":"Denominator"}]},"count":0},{"code":{"coding":[{"system":"http://terminology.hl7.org/CodeSystem/measure-population","code":"denominator-exclusion","display":"Denominator Exclusion"}]},"count":0},{"code":{"coding":[{"system":"http://terminology.hl7.org/CodeSystem/measure-population","code":"numerator","display":"Numerator"}]},"count":0},{"code":{"coding":[{"system":"http://terminology.hl7.org/CodeSystem/measure-population","code":"denominator-exception","display":"Denominator Exception"}]},"count":0}]}]},"request":{"method":"PUT","url":"MeasureReport/d499fe71-41b6-4fa3-847e-4b2b0c7e240e"}}]}