{"resourceType":"Bundle","id":"tests-a40966e2-5640-409f-9596-65c03db31424-bundle","type":"transaction","entry":[{"fullUrl":"https://madie.cms.gov/Patient/a40966e2-5640-409f-9596-65c03db31424","resource":{"resourceType":"Patient","id":"a40966e2-5640-409f-9596-65c03db31424","meta":{"profile":["http://hl7.org/fhir/us/qicore/StructureDefinition/qicore-patient"]},"extension":[{"url":"http://hl7.org/fhir/us/core/StructureDefinition/us-core-race","extension":[{"url":"ombCategory","valueCoding":{"system":"urn:oid:2.16.840.1.113883.6.238","code":"2028-9","display":"Asian"}},{"url":"text","valueString":"Asian"}]},{"url":"http://hl7.org/fhir/us/core/StructureDefinition/us-core-ethnicity","extension":[{"url":"ombCategory","valueCoding":{"system":"urn:oid:2.16.840.1.113883.6.238","code":"2135-2","display":"Hispanic or Latino"}},{"url":"text","valueString":"Hispanic or Latino"}]}],"identifier":[{"type":{"coding":[{"system":"http://terminology.hl7.org/CodeSystem/v2-0203","code":"MR"}]},"system":"https://bonnie-fhir.healthit.gov/","value":"643510313413131"}],"name":[{"family":"DENEXCEPFail","given":["RenalFailDxGTLVSDEncEdge"]}],"gender":"female","birthDate":"1974-09-02"},"request":{"method":"PUT","url":"Patient/a40966e2-5640-409f-9596-65c03db31424"}},{"fullUrl":"https://madie.cms.gov/Encounter/Encounter-541351354513","resource":{"resourceType":"Encounter","id":"Encounter-541351354513","meta":{"profile":["http://hl7.org/fhir/us/qicore/StructureDefinition/qicore-encounter"]},"status":"finished","class":{"system":"http://terminology.hl7.org/CodeSystem/v3-ActCode","code":"AMB","display":"ambulatory"},"type":[{"coding":[{"system":"http://snomed.info/sct","version":"http://snomed.info/sct/731000124108/version/202303","code":"185463005","display":"Visit out of hours (procedure)"}]}],"subject":{"reference":"Patient/a40966e2-5640-409f-9596-65c03db31424"},"period":{"start":"2025-02-17T08:00:00.000+00:00","end":"2025-02-17T08:15:00.000+00:00"}},"request":{"method":"PUT","url":"Encounter/Encounter-541351354513"}},{"fullUrl":"https://madie.cms.gov/Encounter/Encounter-98461535461312","resource":{"resourceType":"Encounter","id":"Encounter-98461535461312","meta":{"profile":["http://hl7.org/fhir/us/qicore/StructureDefinition/qicore-encounter"]},"status":"finished","class":{"system":"http://terminology.hl7.org/CodeSystem/v3-ActCode","code":"AMB","display":"ambulatory"},"type":[{"coding":[{"system":"http://snomed.info/sct","version":"http://snomed.info/sct/731000124108/version/202303","code":"185316007","display":"Indirect encounter (procedure)"}]}],"subject":{"reference":"Patient/a40966e2-5640-409f-9596-65c03db31424"},"period":{"start":"2025-12-30T08:00:00.000+00:00","end":"2025-12-30T08:15:00.000+00:00"}},"request":{"method":"PUT","url":"Encounter/Encounter-98461535461312"}},{"fullUrl":"https://madie.cms.gov/Condition/Condition-8741654646353","resource":{"resourceType":"Condition","id":"Condition-8741654646353","meta":{"profile":["http://hl7.org/fhir/us/qicore/StructureDefinition/qicore-condition"]},"clinicalStatus":{"coding":[{"system":"http://terminology.hl7.org/CodeSystem/condition-clinical","code":"active","display":"Active"}]},"verificationStatus":{"coding":[{"system":"http://terminology.hl7.org/CodeSystem/condition-ver-status","code":"confirmed","display":"Confirmed"}]},"category":[{"coding":[{"system":"http://terminology.hl7.org/CodeSystem/condition-category","code":"problem-list-item","display":"Problem List Item"}]}],"code":{"coding":[{"system":"http://snomed.info/sct","version":"http://snomed.info/sct/731000124108/version/202303","code":"10091002","display":"High output heart failure (disorder)"}]},"subject":{"reference":"Patient/a40966e2-5640-409f-9596-65c03db31424"},"onsetPeriod":{"start":"2025-02-17T08:00:00.000+00:00"}},"request":{"method":"PUT","url":"Condition/Condition-8741654646353"}},{"fullUrl":"https://madie.cms.gov/Observation/Observation-351684613135","resource":{"resourceType":"Observation","id":"Observation-351684613135","meta":{"profile":["http://hl7.org/fhir/us/qicore/StructureDefinition/qicore-observation"]},"status":"final","category":[{"coding":[{"system":"http://terminology.hl7.org/CodeSystem/observation-category","code":"imaging","display":"Imaging"}],"text":"Imaging"}],"code":{"coding":[{"system":"http://loinc.org","version":"2.73","code":"10230-1","display":"Left ventricular Ejection fraction"}]},"subject":{"reference":"Patient/a40966e2-5640-409f-9596-65c03db31424"},"effectiveDateTime":"2025-02-17T08:00:00.000+00:00","valueQuantity":{"value":35.0,"unit":"%","system":"http://unitsofmeasure.org","code":"%"}},"request":{"method":"PUT","url":"Observation/Observation-351684613135"}},{"fullUrl":"https://madie.cms.gov/Condition/Condition-571521321551548","resource":{"resourceType":"Condition","id":"Condition-571521321551548","meta":{"profile":["http://hl7.org/fhir/us/qicore/StructureDefinition/qicore-condition"]},"clinicalStatus":{"coding":[{"system":"http://terminology.hl7.org/CodeSystem/condition-clinical","code":"active","display":"Active"}]},"verificationStatus":{"coding":[{"system":"http://terminology.hl7.org/CodeSystem/condition-ver-status","code":"confirmed","display":"confirmed"}]},"category":[{"coding":[{"system":"http://terminology.hl7.org/CodeSystem/condition-category","code":"problem-list-item","display":"Problem List Item"}]}],"code":{"coding":[{"system":"http://snomed.info/sct","version":"http://snomed.info/sct/731000124108/version/202303","code":"422593004","display":"Acute renal failure caused by angiotensin-converting-enzyme inhibitor (disorder)"}]},"subject":{"reference":"Patient/a40966e2-5640-409f-9596-65c03db31424"},"onsetPeriod":{"start":"2025-02-18T08:16:00.000+00:00"}},"request":{"method":"PUT","url":"Condition/Condition-571521321551548"}},{"fullUrl":"https://madie.cms.gov/MeasureReport/691622f2-c227-4c22-b054-ae32ed76a456","resource":{"resourceType":"MeasureReport","id":"691622f2-c227-4c22-b054-ae32ed76a456","meta":{"profile":["http://hl7.org/fhir/us/cqfmeasures/StructureDefinition/test-case-cqfm"]},"contained":[{"resourceType":"Parameters","id":"f10ccc4c-e35c-4c32-add3-e5c67c7d2dba-parameters","parameter":[{"name":"subject","valueString":"a40966e2-5640-409f-9596-65c03db31424"}]}],"extension":[{"url":"http://hl7.org/fhir/us/cqfmeasures/StructureDefinition/cqfm-inputParameters","valueReference":{"reference":"#f10ccc4c-e35c-4c32-add3-e5c67c7d2dba-parameters"}},{"url":"http://hl7.org/fhir/us/cqfmeasures/StructureDefinition/cqfm-testCaseDescription","valueMarkdown":"Patient has diagnosis of Renal Failure caused by ACEARB where onset is 1 day after LVSDHF Encounter"}],"modifierExtension":[{"url":"http://hl7.org/fhir/us/cqfmeasures/StructureDefinition/cqfm-isTestCase","valueBoolean":true}],"status":"complete","type":"individual","measure":"https://madie.cms.gov/Measure/HFACEIorARBorARNIforLVSDFHIR","period":{"start":"2025-01-01","end":"2025-12-31"},"group":[{"population":[{"code":{"coding":[{"system":"http://terminology.hl7.org/CodeSystem/measure-population","code":"initial-population","display":"Initial Population"}]},"count":1},{"code":{"coding":[{"system":"http://terminology.hl7.org/CodeSystem/measure-population","code":"denominator","display":"Denominator"}]},"count":1},{"code":{"coding":[{"system":"http://terminology.hl7.org/CodeSystem/measure-population","code":"denominator-exclusion","display":"Denominator Exclusion"}]},"count":0},{"code":{"coding":[{"system":"http://terminology.hl7.org/CodeSystem/measure-population","code":"denominator-exception","display":"Denominator Exception"}]},"count":0},{"code":{"coding":[{"system":"http://terminology.hl7.org/CodeSystem/measure-population","code":"numerator","display":"Numerator"}]},"count":0}]}],"evaluatedResource":[{"reference":"Patient/a40966e2-5640-409f-9596-65c03db31424"},{"reference":"Encounter/Encounter-541351354513"},{"reference":"Encounter/Encounter-98461535461312"},{"reference":"Condition/Condition-8741654646353"},{"reference":"Observation/351684613135"},{"reference":"Condition/Condition-571521321551548"}]},"request":{"method":"PUT","url":"MeasureReport/691622f2-c227-4c22-b054-ae32ed76a456"}}]}