{"resourceType":"Bundle","id":"tests-ef395d2c-85a3-41a2-b6cb-37c4ff5217dc-bundle","type":"transaction","entry":[{"fullUrl":"https://madie.cms.gov/Patient/ef395d2c-85a3-41a2-b6cb-37c4ff5217dc","resource":{"resourceType":"Patient","id":"ef395d2c-85a3-41a2-b6cb-37c4ff5217dc","meta":{"profile":["http://hl7.org/fhir/us/qicore/StructureDefinition/qicore-patient"]},"extension":[{"url":"http://hl7.org/fhir/us/core/StructureDefinition/us-core-race","extension":[{"url":"ombCategory","valueCoding":{"system":"urn:oid:2.16.840.1.113883.6.238","code":"1002-5","display":"American Indian or Alaska Native"}},{"url":"text","valueString":"American Indian or Alaska Native"}]},{"url":"http://hl7.org/fhir/us/core/StructureDefinition/us-core-ethnicity","extension":[{"url":"ombCategory","valueCoding":{"system":"urn:oid:2.16.840.1.113883.6.238","code":"2186-5","display":"Not Hispanic or Latino"}},{"url":"text","valueString":"Not Hispanic or Latino"}]}],"identifier":[{"type":{"coding":[{"system":"http://terminology.hl7.org/CodeSystem/v2-0203","code":"MR"}]},"system":"https://bonnie-fhir.healthit.gov/","value":"431385494631"}],"name":[{"family":"DENEXPass","given":["LVADCmplictnsInterval"]}],"gender":"male","birthDate":"1968-06-14"},"request":{"method":"PUT","url":"Patient/ef395d2c-85a3-41a2-b6cb-37c4ff5217dc"}},{"fullUrl":"https://madie.cms.gov/Encounter/68496431333513516","resource":{"resourceType":"Encounter","id":"0b59b46b-a5f3-4e92-8fe3-711bbe290b26","meta":{"profile":["http://hl7.org/fhir/us/qicore/StructureDefinition/qicore-encounter"]},"status":"finished","class":{"system":"http://terminology.hl7.org/CodeSystem/v3-ActCode","code":"AMB","display":"ambulatory"},"type":[{"coding":[{"system":"http://snomed.info/sct","version":"http://snomed.info/sct/731000124108/version/20240301","code":"281036007","display":"Follow-up consultation (procedure)"}]}],"subject":{"reference":"Patient/ef395d2c-85a3-41a2-b6cb-37c4ff5217dc"},"period":{"start":"2025-03-31T14:40:00.000+00:00","end":"2025-03-31T14:40:00.000+00:00"}},"request":{"method":"PUT","url":"Encounter/0b59b46b-a5f3-4e92-8fe3-711bbe290b26"}},{"fullUrl":"https://madie.cms.gov/Encounter/874946516313513","resource":{"resourceType":"Encounter","id":"a28d2562-2fe6-4fe9-8b0c-8fbee545a170","meta":{"profile":["http://hl7.org/fhir/us/qicore/StructureDefinition/qicore-encounter"]},"status":"finished","class":{"system":"http://terminology.hl7.org/CodeSystem/v3-ActCode","code":"AMB","display":"ambulatory"},"type":[{"coding":[{"system":"http://snomed.info/sct","version":"http://snomed.info/sct/731000124108/version/20240301","code":"281036007","display":"Follow-up consultation (procedure)"}]}],"subject":{"reference":"Patient/ef395d2c-85a3-41a2-b6cb-37c4ff5217dc"},"period":{"start":"2025-05-15T11:50:00.000+00:00","end":"2025-05-15T11:50:00.000+00:00"}},"request":{"method":"PUT","url":"Encounter/a28d2562-2fe6-4fe9-8b0c-8fbee545a170"}},{"fullUrl":"https://madie.cms.gov/Condition/68496416313513785","resource":{"resourceType":"Condition","id":"164b4458-21d7-4d90-a3f5-5984d62389df","meta":{"profile":["http://hl7.org/fhir/us/qicore/StructureDefinition/qicore-condition"]},"clinicalStatus":{"coding":[{"system":"http://terminology.hl7.org/CodeSystem/condition-clinical","code":"active","display":"active"}]},"verificationStatus":{"coding":[{"system":"http://terminology.hl7.org/CodeSystem/condition-ver-status","code":"confirmed","display":"Confirmed"}]},"category":[{"coding":[{"system":"http://terminology.hl7.org/CodeSystem/condition-category","code":"problem-list-item","display":"Problem List Item"}]}],"code":{"coding":[{"system":"http://snomed.info/sct","version":"http://snomed.info/sct/731000124108/version/20240301","code":"10091002","display":"High output heart failure (disorder)"}]},"subject":{"reference":"Patient/ef395d2c-85a3-41a2-b6cb-37c4ff5217dc"},"onsetPeriod":{"start":"2024-05-17T10:00:00.000+00:00"}},"request":{"method":"PUT","url":"Condition/164b4458-21d7-4d90-a3f5-5984d62389df"}},{"fullUrl":"https://madie.cms.gov/Condition/879413516131313","resource":{"resourceType":"Condition","id":"7b43784b-3841-4583-b6fd-dc4678d19e2f","meta":{"profile":["http://hl7.org/fhir/us/qicore/StructureDefinition/qicore-condition"]},"clinicalStatus":{"coding":[{"system":"http://terminology.hl7.org/CodeSystem/condition-clinical","code":"active","display":"Active"}]},"verificationStatus":{"coding":[{"system":"http://terminology.hl7.org/CodeSystem/condition-ver-status","code":"confirmed","display":"Confirmed"}]},"category":[{"coding":[{"system":"http://terminology.hl7.org/CodeSystem/condition-category","code":"problem-list-item","display":"Problem List Item"}]}],"code":{"coding":[{"system":"http://snomed.info/sct","version":"http://snomed.info/sct/731000124108/version/20240301","code":"991000124109","display":"Severe left ventricular systolic dysfunction (disorder)"}]},"subject":{"reference":"Patient/ef395d2c-85a3-41a2-b6cb-37c4ff5217dc"},"onsetPeriod":{"start":"2025-03-25T16:00:00.000+00:00","end":"2025-03-30T16:00:00.000+00:00"}},"request":{"method":"PUT","url":"Condition/7b43784b-3841-4583-b6fd-dc4678d19e2f"}},{"fullUrl":"https://madie.cms.gov/Procedure/684641631331231","resource":{"resourceType":"Procedure","id":"3b101d9d-e1a9-416d-8ef6-87547ce81685","meta":{"profile":["http://hl7.org/fhir/us/qicore/StructureDefinition/qicore-procedure"]},"extension":[{"url":"http://hl7.org/fhir/us/qicore/StructureDefinition/qicore-recorded","valueDateTime":"2024-09-25T13:00:00.000+00:00"}],"status":"completed","code":{"coding":[{"system":"http://www.ama-assn.org/go/cpt","version":"2024","code":"33976","display":"Insertion of ventricular assist device; extracorporeal, biventricular"}]},"subject":{"reference":"Patient/ef395d2c-85a3-41a2-b6cb-37c4ff5217dc"},"performedPeriod":{"start":"2024-09-25T11:00:00.000+00:00","end":"2024-09-25T12:00:00.000+00:00"}},"request":{"method":"PUT","url":"Procedure/3b101d9d-e1a9-416d-8ef6-87547ce81685"}},{"fullUrl":"https://madie.cms.gov/Condition/251324613213131","resource":{"resourceType":"Condition","id":"ba3589a4-472f-41a5-8846-70741d952b87","meta":{"profile":["http://hl7.org/fhir/us/qicore/StructureDefinition/qicore-condition"]},"clinicalStatus":{"coding":[{"system":"http://terminology.hl7.org/CodeSystem/condition-clinical","code":"active","display":"Active"}]},"verificationStatus":{"coding":[{"system":"http://terminology.hl7.org/CodeSystem/condition-ver-status","code":"confirmed","display":"Confirmed"}]},"category":[{"coding":[{"system":"http://terminology.hl7.org/CodeSystem/condition-category","code":"problem-list-item","display":"Problem List Item"}]}],"code":{"coding":[{"system":"http://snomed.info/sct","version":"http://snomed.info/sct/731000124108/version/20240301","code":"764680009","display":"Infection of left ventricular assist device driveline (disorder)"}]},"subject":{"reference":"Patient/ef395d2c-85a3-41a2-b6cb-37c4ff5217dc"},"onsetDateTime":"2025-01-14T16:00:00.000+00:00"},"request":{"method":"PUT","url":"Condition/ba3589a4-472f-41a5-8846-70741d952b87"}},{"fullUrl":"https://madie.cms.gov/MeasureReport/7294020f-f591-4e89-9063-46e429b7bacc","resource":{"resourceType":"MeasureReport","id":"7294020f-f591-4e89-9063-46e429b7bacc","meta":{"profile":["http://hl7.org/fhir/us/cqfmeasures/StructureDefinition/test-case-cqfm"]},"contained":[{"resourceType":"Parameters","id":"3ee023be-e295-400d-a26f-77808a85cc94-parameters","parameter":[{"name":"subject","valueString":"ef395d2c-85a3-41a2-b6cb-37c4ff5217dc"}]}],"extension":[{"url":"http://hl7.org/fhir/us/cqfmeasures/StructureDefinition/cqfm-inputParameters","valueReference":{"reference":"#3ee023be-e295-400d-a26f-77808a85cc94-parameters"}},{"url":"http://hl7.org/fhir/us/cqfmeasures/StructureDefinition/cqfm-testCaseDescription","valueMarkdown":"Patient has 2 ambulatory encounters, HF diagnosis and LVSD and meets denominator exclusion with history of LVAD complications using prevalence interval"}],"modifierExtension":[{"url":"http://hl7.org/fhir/us/cqfmeasures/StructureDefinition/cqfm-isTestCase","valueBoolean":true}],"status":"complete","type":"individual","measure":"https://madie.cms.gov/Measure/HFACEIorARBorARNIforLVSDFHIR","period":{"start":"2025-01-01","end":"2025-12-31"},"group":[{"population":[{"code":{"coding":[{"system":"http://terminology.hl7.org/CodeSystem/measure-population","code":"initial-population","display":"Initial Population"}]},"count":1},{"code":{"coding":[{"system":"http://terminology.hl7.org/CodeSystem/measure-population","code":"denominator","display":"Denominator"}]},"count":1},{"code":{"coding":[{"system":"http://terminology.hl7.org/CodeSystem/measure-population","code":"denominator-exclusion","display":"Denominator Exclusion"}]},"count":1},{"code":{"coding":[{"system":"http://terminology.hl7.org/CodeSystem/measure-population","code":"numerator","display":"Numerator"}]},"count":0},{"code":{"coding":[{"system":"http://terminology.hl7.org/CodeSystem/measure-population","code":"denominator-exception","display":"Denominator Exception"}]},"count":0}]}]},"request":{"method":"PUT","url":"MeasureReport/7294020f-f591-4e89-9063-46e429b7bacc"}}]}