{"resourceType":"Bundle","id":"tests-8b83ee2c-fbad-4b89-a7e0-10f7d749d60f-bundle","type":"transaction","entry":[{"fullUrl":"https://madie.cms.gov/Patient/8b83ee2c-fbad-4b89-a7e0-10f7d749d60f","resource":{"resourceType":"Patient","id":"8b83ee2c-fbad-4b89-a7e0-10f7d749d60f","meta":{"profile":["http://hl7.org/fhir/us/qicore/StructureDefinition/qicore-patient"]},"extension":[{"url":"http://hl7.org/fhir/us/core/StructureDefinition/us-core-race","extension":[{"url":"ombCategory","valueCoding":{"system":"urn:oid:2.16.840.1.113883.6.238","code":"2106-3","display":"White","userSelected":true}},{"url":"text","valueString":"White"}]},{"url":"http://hl7.org/fhir/us/core/StructureDefinition/us-core-ethnicity","extension":[{"url":"ombCategory","valueCoding":{"system":"urn:oid:2.16.840.1.113883.6.238","code":"2186-5","display":"Not Hispanic or Latino","userSelected":true}},{"url":"text","valueString":"Not Hispanic or Latino"}]}],"identifier":[{"type":{"coding":[{"system":"http://terminology.hl7.org/CodeSystem/v2-0203","code":"MR"}]},"system":"https://bonnie-fhir.healthit.gov/","value":"64d3efc27483504df34e44b1"}],"name":[{"family":"NumFail","given":["VLduringMPwithEncAfter90DaysDRC"]}],"gender":"female","birthDate":"2017-05-12"},"request":{"method":"PUT","url":"Patient/8b83ee2c-fbad-4b89-a7e0-10f7d749d60f"}},{"fullUrl":"https://madie.cms.gov/Condition/hiv-f911","resource":{"resourceType":"Condition","id":"hiv-f911","meta":{"profile":["http://hl7.org/fhir/us/qicore/StructureDefinition/qicore-condition"]},"clinicalStatus":{"coding":[{"system":"http://terminology.hl7.org/CodeSystem/condition-clinical","code":"active","display":"active","userSelected":true}]},"category":[{"coding":[{"system":"http://terminology.hl7.org/CodeSystem/condition-category","code":"problem-list-item","display":"Problem List Item"}]}],"code":{"coding":[{"system":"http://hl7.org/fhir/sid/icd-9-cm","version":"2013","code":"042","display":"Human immunodeficiency virus [HIV] disease","userSelected":true},{"system":"http://snomed.info/sct","code":"165816005","userSelected":true}]},"subject":{"reference":"Patient/8b83ee2c-fbad-4b89-a7e0-10f7d749d60f"},"onsetDateTime":"2020-05-12T08:00:00.000+00:00"},"request":{"method":"PUT","url":"Condition/hiv-f911"}},{"fullUrl":"https://madie.cms.gov/Observation/hiv-viral-load-f913","resource":{"resourceType":"Observation","id":"hiv-viral-load-f913","meta":{"profile":["http://hl7.org/fhir/us/qicore/StructureDefinition/qicore-observation"]},"status":"final","category":[{"coding":[{"system":"http://terminology.hl7.org/CodeSystem/observation-category"}]}],"code":{"coding":[{"system":"http://loinc.org","version":"2.73","code":"10351-5","display":"HIV 1 RNA [Units/volume] (viral load) in Serum or Plasma by Probe with amplification","userSelected":true}]},"subject":{"reference":"Patient/8b83ee2c-fbad-4b89-a7e0-10f7d749d60f"},"effectiveDateTime":"2025-01-30T08:00:00.000+00:00","issued":"2025-01-30T08:00:00.000+00:00"},"request":{"method":"PUT","url":"Observation/hiv-viral-load-f913"}},{"fullUrl":"https://madie.cms.gov/Encounter/preventive-care-services-other-44b2","resource":{"resourceType":"Encounter","id":"preventive-care-services-other-44b2","meta":{"profile":["http://hl7.org/fhir/us/qicore/StructureDefinition/qicore-encounter"]},"status":"finished","class":{"system":"http://terminology.hl7.org/CodeSystem/v3-ActCode","code":"AMB","display":"ambulatory"},"type":[{"coding":[{"system":"http://www.ama-assn.org/go/cpt","code":"99429","display":"Unlisted preventive medicine service","userSelected":true}]}],"subject":{"reference":"Patient/8b83ee2c-fbad-4b89-a7e0-10f7d749d60f"},"period":{"start":"2025-02-22T08:00:00.000+00:00","end":"2025-02-22T08:15:00.000+00:00"}},"request":{"method":"PUT","url":"Encounter/preventive-care-services-other-44b2"}},{"fullUrl":"https://madie.cms.gov/Coverage/1","resource":{"resourceType":"Coverage","id":"1","meta":{"profile":["http://hl7.org/fhir/us/qicore/StructureDefinition/qicore-coverage"]},"status":"active","beneficiary":{"reference":"Patient/8b83ee2c-fbad-4b89-a7e0-10f7d749d60f"},"payor":[{"reference":"Organization/123456"}]},"request":{"method":"PUT","url":"Coverage/1"}},{"fullUrl":"https://madie.cms.gov/Organization/123456","resource":{"resourceType":"Organization","id":"123456","meta":{"profile":["http://hl7.org/fhir/us/qicore/StructureDefinition/qicore-organization"]},"identifier":[{"use":"temp","system":"urn:oid:2.16.840.1.113883.4.4","value":"21-3259825"}],"active":true,"type":[{"coding":[{"system":"http://terminology.hl7.org/CodeSystem/organization-type","code":"pay","display":"Payer"}]}],"name":"Blue Cross Blue Shield of Texas","telecom":[{"system":"phone","value":"(+1) 972-766-6900"}],"address":[{"use":"billing","type":"postal","line":["P.O. Box 660044"],"city":"Dallas","state":"TX","postalCode":"75266-0044","country":"USA"}]},"request":{"method":"PUT","url":"Organization/123456"}},{"fullUrl":"https://madie.cms.gov/Practitioner/practitioner-123456","resource":{"resourceType":"Practitioner","id":"practitioner-123456","meta":{"profile":["http://hl7.org/fhir/us/qicore/StructureDefinition/qicore-practitioner"]},"identifier":[{"system":"http://hl7.org/fhir/sid/us-npi","value":"123456"}],"name":[{"family":"Evil","prefix":["Dr"]}]},"request":{"method":"PUT","url":"Practitioner/practitioner-123456"}},{"fullUrl":"https://madie.cms.gov/MeasureReport/686d5dc3-f695-4da1-9816-3efb61fec504","resource":{"resourceType":"MeasureReport","id":"686d5dc3-f695-4da1-9816-3efb61fec504","meta":{"profile":["http://hl7.org/fhir/us/cqfmeasures/StructureDefinition/test-case-cqfm"]},"contained":[{"resourceType":"Parameters","id":"0f03a79c-65b1-4199-ad56-9c7567273c17-parameters","parameter":[{"name":"subject","valueString":"8b83ee2c-fbad-4b89-a7e0-10f7d749d60f"}]}],"extension":[{"url":"http://hl7.org/fhir/us/cqfmeasures/StructureDefinition/cqfm-inputParameters","valueReference":{"reference":"#0f03a79c-65b1-4199-ad56-9c7567273c17-parameters"}},{"url":"http://hl7.org/fhir/us/cqfmeasures/StructureDefinition/cqfm-testCaseDescription","valueMarkdown":"Patient has a viral load test during the measurement period with an encounter before 90 days. Encounter is unlisted preventive medicine service."}],"modifierExtension":[{"url":"http://hl7.org/fhir/us/cqfmeasures/StructureDefinition/cqfm-isTestCase","valueBoolean":true}],"status":"complete","type":"individual","measure":"https://madie.cms.gov/Measure/HIVRetentionFHIR","period":{"start":"2025-01-01","end":"2025-12-31"},"group":[{"population":[{"code":{"coding":[{"system":"http://terminology.hl7.org/CodeSystem/measure-population","code":"initial-population","display":"Initial Population"}]},"count":1},{"code":{"coding":[{"system":"http://terminology.hl7.org/CodeSystem/measure-population","code":"denominator","display":"Denominator"}]},"count":1},{"code":{"coding":[{"system":"http://terminology.hl7.org/CodeSystem/measure-population","code":"numerator","display":"Numerator"}]},"count":0}]}],"evaluatedResource":[{"reference":"Patient/8b83ee2c-fbad-4b89-a7e0-10f7d749d60f"},{"reference":"Condition/hiv-f911"},{"reference":"Observation/hiv-viral-load-f913"},{"reference":"Encounter/preventive-care-services-other-44b2"},{"reference":"Coverage/1"},{"reference":"Organization/123456"},{"reference":"Practitioner/practitioner-123456"}]},"request":{"method":"PUT","url":"MeasureReport/686d5dc3-f695-4da1-9816-3efb61fec504"}}]}