{"resourceType":"Bundle","id":"tests-98acbc6d-b8e1-4a69-9b6f-682890dd64b3-bundle","type":"transaction","entry":[{"fullUrl":"https://madie.cms.gov/Patient/98acbc6d-b8e1-4a69-9b6f-682890dd64b3","resource":{"resourceType":"Patient","id":"98acbc6d-b8e1-4a69-9b6f-682890dd64b3","meta":{"profile":["http://hl7.org/fhir/us/qicore/StructureDefinition/qicore-patient"]},"extension":[{"url":"http://hl7.org/fhir/us/core/StructureDefinition/us-core-race","extension":[{"url":"ombCategory","valueCoding":{"system":"urn:oid:2.16.840.1.113883.6.238","code":"2106-3","display":"White","userSelected":true}},{"url":"text","valueString":"White"}]},{"url":"http://hl7.org/fhir/us/core/StructureDefinition/us-core-ethnicity","extension":[{"url":"ombCategory","valueCoding":{"system":"urn:oid:2.16.840.1.113883.6.238","code":"2135-2","display":"Hispanic or Latino","userSelected":true}},{"url":"text","valueString":"Hispanic or Latino"}]}],"identifier":[{"type":{"coding":[{"system":"http://terminology.hl7.org/CodeSystem/v2-0203","code":"MR"}]},"system":"https://bonnie-fhir.healthit.gov/","value":"6494679cd09ece2c2e9bf933"}],"name":[{"family":"12NumPass","given":["EncInMPVLafterEncDuringMP"]}],"gender":"male","birthDate":"1990-06-08"},"request":{"method":"PUT","url":"Patient/98acbc6d-b8e1-4a69-9b6f-682890dd64b3"}},{"fullUrl":"https://madie.cms.gov/Condition/hiv-f934","resource":{"resourceType":"Condition","id":"hiv-f934","meta":{"profile":["http://hl7.org/fhir/us/qicore/StructureDefinition/qicore-condition"]},"clinicalStatus":{"coding":[{"system":"http://terminology.hl7.org/CodeSystem/condition-clinical","code":"active","display":"active","userSelected":true}]},"category":[{"coding":[{"system":"http://terminology.hl7.org/CodeSystem/condition-category","code":"problem-list-item","display":"Problem List Item"}]}],"code":{"coding":[{"system":"http://hl7.org/fhir/sid/icd-9-cm","version":"2013","code":"042","display":"Human immunodeficiency virus [HIV] disease","userSelected":true},{"system":"http://snomed.info/sct","code":"165816005","userSelected":true}]},"subject":{"reference":"Patient/98acbc6d-b8e1-4a69-9b6f-682890dd64b3"},"onsetDateTime":"2001-09-08T08:00:00.000+00:00","recordedDate":"2001-09-08T08:00:00.000+00:00"},"request":{"method":"PUT","url":"Condition/hiv-f934"}},{"fullUrl":"https://madie.cms.gov/Encounter/outpatient-consultation-f935","resource":{"resourceType":"Encounter","id":"outpatient-consultation-f935","meta":{"profile":["http://hl7.org/fhir/us/qicore/StructureDefinition/qicore-encounter"]},"status":"finished","class":{"system":"http://terminology.hl7.org/CodeSystem/v3-ActCode","code":"AMB","display":"ambulatory"},"type":[{"coding":[{"system":"http://snomed.info/sct","version":"2022-09","code":"281036007","display":"Follow-up consultation (procedure)","userSelected":true}]}],"subject":{"reference":"Patient/98acbc6d-b8e1-4a69-9b6f-682890dd64b3"},"period":{"start":"2025-01-30T08:00:00.000+00:00","end":"2025-01-30T08:15:00.000+00:00"}},"request":{"method":"PUT","url":"Encounter/outpatient-consultation-f935"}},{"fullUrl":"https://madie.cms.gov/Observation/hiv-viral-load-f936","resource":{"resourceType":"Observation","id":"hiv-viral-load-f936","meta":{"profile":["http://hl7.org/fhir/us/qicore/StructureDefinition/qicore-observation"]},"status":"final","category":[{"coding":[{"system":"http://terminology.hl7.org/CodeSystem/observation-category"}]}],"code":{"coding":[{"system":"http://loinc.org","code":"20447-9","userSelected":true}]},"subject":{"reference":"Patient/98acbc6d-b8e1-4a69-9b6f-682890dd64b3"},"effectiveDateTime":"2025-05-01T08:00:00.000+00:00"},"request":{"method":"PUT","url":"Observation/hiv-viral-load-f936"}},{"fullUrl":"https://madie.cms.gov/Coverage/1","resource":{"resourceType":"Coverage","id":"1","meta":{"profile":["http://hl7.org/fhir/us/qicore/StructureDefinition/qicore-coverage"]},"status":"active","beneficiary":{"reference":"Patient/98acbc6d-b8e1-4a69-9b6f-682890dd64b3"},"payor":[{"reference":"Organization/123456"}]},"request":{"method":"PUT","url":"Coverage/1"}},{"fullUrl":"https://madie.cms.gov/Organization/123456","resource":{"resourceType":"Organization","id":"123456","meta":{"profile":["http://hl7.org/fhir/us/qicore/StructureDefinition/qicore-organization"]},"identifier":[{"use":"temp","system":"urn:oid:2.16.840.1.113883.4.4","value":"21-3259825"}],"active":true,"type":[{"coding":[{"system":"http://terminology.hl7.org/CodeSystem/organization-type","code":"pay","display":"Payer"}]}],"name":"Blue Cross Blue Shield of Texas","telecom":[{"system":"phone","value":"(+1) 972-766-6900"}],"address":[{"use":"billing","type":"postal","line":["P.O. Box 660044"],"city":"Dallas","state":"TX","postalCode":"75266-0044","country":"USA"}]},"request":{"method":"PUT","url":"Organization/123456"}},{"fullUrl":"https://madie.cms.gov/Practitioner/practitioner-123456","resource":{"resourceType":"Practitioner","id":"practitioner-123456","meta":{"profile":["http://hl7.org/fhir/us/qicore/StructureDefinition/qicore-practitioner"]},"identifier":[{"system":"http://hl7.org/fhir/sid/us-npi","value":"123456"}],"name":[{"family":"Evil","prefix":["Dr"]}]},"request":{"method":"PUT","url":"Practitioner/practitioner-123456"}},{"fullUrl":"https://madie.cms.gov/MeasureReport/6e285056-bd7d-44d4-829d-506975bab30d","resource":{"resourceType":"MeasureReport","id":"6e285056-bd7d-44d4-829d-506975bab30d","meta":{"profile":["http://hl7.org/fhir/us/cqfmeasures/StructureDefinition/test-case-cqfm"]},"contained":[{"resourceType":"Parameters","id":"e0db74d2-6430-4348-9e9f-ffd7ca5ec5ce-parameters","parameter":[{"name":"subject","valueString":"98acbc6d-b8e1-4a69-9b6f-682890dd64b3"}]}],"extension":[{"url":"http://hl7.org/fhir/us/cqfmeasures/StructureDefinition/cqfm-inputParameters","valueReference":{"reference":"#e0db74d2-6430-4348-9e9f-ffd7ca5ec5ce-parameters"}},{"url":"http://hl7.org/fhir/us/cqfmeasures/StructureDefinition/cqfm-testCaseDescription","valueMarkdown":"Patient has an encounter during the first 240 days of the MP and a VL test on 5/1 (on 90 days after Enc)"}],"modifierExtension":[{"url":"http://hl7.org/fhir/us/cqfmeasures/StructureDefinition/cqfm-isTestCase","valueBoolean":true}],"status":"complete","type":"individual","measure":"https://madie.cms.gov/Measure/HIVRetentionFHIR","period":{"start":"2025-01-01","end":"2025-12-31"},"group":[{"population":[{"code":{"coding":[{"system":"http://terminology.hl7.org/CodeSystem/measure-population","code":"initial-population","display":"Initial Population"}]},"count":1},{"code":{"coding":[{"system":"http://terminology.hl7.org/CodeSystem/measure-population","code":"denominator","display":"Denominator"}]},"count":1},{"code":{"coding":[{"system":"http://terminology.hl7.org/CodeSystem/measure-population","code":"numerator","display":"Numerator"}]},"count":1}]}],"evaluatedResource":[{"reference":"Patient/98acbc6d-b8e1-4a69-9b6f-682890dd64b3"},{"reference":"Condition/hiv-f934"},{"reference":"Encounter/outpatient-consultation-f935"},{"reference":"Observation/hiv-viral-load-f936"},{"reference":"Coverage/1"},{"reference":"Organization/123456"},{"reference":"Practitioner/practitioner-123456"}]},"request":{"method":"PUT","url":"MeasureReport/6e285056-bd7d-44d4-829d-506975bab30d"}}]}