{"resourceType":"Bundle","id":"tests-e360ffc2-5b98-425a-a2bd-b051ba5ec506-bundle","type":"transaction","entry":[{"fullUrl":"https://madie.cms.gov/Patient/e360ffc2-5b98-425a-a2bd-b051ba5ec506","resource":{"resourceType":"Patient","id":"e360ffc2-5b98-425a-a2bd-b051ba5ec506","meta":{"profile":["http://hl7.org/fhir/us/qicore/StructureDefinition/qicore-patient"]},"extension":[{"url":"http://hl7.org/fhir/us/core/StructureDefinition/us-core-race","extension":[{"url":"ombCategory","valueCoding":{"system":"urn:oid:2.16.840.1.113883.6.238","code":"1002-5","display":"American Indian or Alaska Native","userSelected":true}},{"url":"text","valueString":"American Indian or Alaska Native"}]},{"url":"http://hl7.org/fhir/us/core/StructureDefinition/us-core-ethnicity","extension":[{"url":"ombCategory","valueCoding":{"system":"urn:oid:2.16.840.1.113883.6.238","code":"2135-2","display":"Hispanic or Latino","userSelected":true}},{"url":"text","valueString":"Hispanic or Latino"}]}],"identifier":[{"type":{"coding":[{"system":"http://terminology.hl7.org/CodeSystem/v2-0203","code":"MR"}]},"system":"https://bonnie-fhir.healthit.gov/","value":"61152a3b98086b7a79cbd7b6"}],"active":true,"name":[{"use":"usual","family":"DENOMPass","given":["Age17inEDAge18StartOfIPEncounter"]}],"gender":"male","birthDate":"2008-07-11"},"request":{"method":"PUT","url":"Patient/e360ffc2-5b98-425a-a2bd-b051ba5ec506"}},{"fullUrl":"https://madie.cms.gov/Encounter/0cbd8a55-9aa1-400f-9b5b-dd93a9710bd2","resource":{"resourceType":"Encounter","id":"0cbd8a55-9aa1-400f-9b5b-dd93a9710bd2","meta":{"profile":["http://hl7.org/fhir/us/qicore/StructureDefinition/qicore-encounter"]},"status":"finished","class":{"system":"http://terminology.hl7.org/CodeSystem/v3-ActCode","code":"IMP"},"type":[{"coding":[{"system":"http://snomed.info/sct","code":"4525004"}]}],"subject":{"reference":"Patient/e360ffc2-5b98-425a-a2bd-b051ba5ec506"},"period":{"start":"2026-07-11T08:00:00.000+00:00","end":"2026-07-12T08:00:00.000+00:00"}},"request":{"method":"PUT","url":"Encounter/0cbd8a55-9aa1-400f-9b5b-dd93a9710bd2"}},{"fullUrl":"https://madie.cms.gov/Encounter/4aa25995-3d17-42bf-b425-6aa76a99353c","resource":{"resourceType":"Encounter","id":"4aa25995-3d17-42bf-b425-6aa76a99353c","meta":{"profile":["http://hl7.org/fhir/us/qicore/StructureDefinition/qicore-encounter"]},"status":"finished","class":{"system":"http://terminology.hl7.org/CodeSystem/v3-ActCode","code":"IMP"},"type":[{"coding":[{"system":"http://snomed.info/sct","code":"183452005"}]}],"subject":{"reference":"Patient/e360ffc2-5b98-425a-a2bd-b051ba5ec506"},"period":{"start":"2026-07-12T08:30:00+00:00","end":"2026-07-13T21:00:00+00:00"}},"request":{"method":"PUT","url":"Encounter/4aa25995-3d17-42bf-b425-6aa76a99353c"}},{"fullUrl":"https://madie.cms.gov/MedicationAdministration/fb739d55-5f5b-412d-9f94-d5d77c1433f8","resource":{"resourceType":"MedicationAdministration","id":"fb739d55-5f5b-412d-9f94-d5d77c1433f8","meta":{"profile":["http://hl7.org/fhir/us/qicore/StructureDefinition/qicore-medicationadministration"]},"status":"completed","medicationCodeableConcept":{"coding":[{"system":"http://www.nlm.nih.gov/research/umls/rxnorm","code":"1361493","display":"glimepiride 6 MG Oral Tablet","userSelected":true}]},"subject":{"reference":"Patient/e360ffc2-5b98-425a-a2bd-b051ba5ec506"},"effectivePeriod":{"start":"2026-07-11T08:00:00+00:00","end":"2026-07-11T09:00:00+00:00"}},"request":{"method":"PUT","url":"MedicationAdministration/fb739d55-5f5b-412d-9f94-d5d77c1433f8"}},{"fullUrl":"https://madie.cms.gov/Coverage/df012c3d-12c0-48b9-b35a-4333f25c34ca","resource":{"resourceType":"Coverage","id":"df012c3d-12c0-48b9-b35a-4333f25c34ca","meta":{"profile":["http://hl7.org/fhir/us/qicore/StructureDefinition/qicore-coverage"]},"status":"active","beneficiary":{"reference":"Patient/e360ffc2-5b98-425a-a2bd-b051ba5ec506"},"payor":[{"reference":"Organization/e75793c9-fdf6-463a-8c1d-4ee44320dc25"}]},"request":{"method":"PUT","url":"Coverage/df012c3d-12c0-48b9-b35a-4333f25c34ca"}},{"fullUrl":"https://madie.cms.gov/Organization/41eba014-71b0-481f-814a-eaac52022e7e","resource":{"resourceType":"Organization","id":"e75793c9-fdf6-463a-8c1d-4ee44320dc25","meta":{"profile":["http://hl7.org/fhir/us/qicore/StructureDefinition/qicore-organization"]},"identifier":[{"use":"temp","system":"urn:oid:2.16.840.1.113883.4.4","value":"21-3259825"}],"active":true,"type":[{"coding":[{"system":"http://terminology.hl7.org/CodeSystem/organization-type","code":"pay","display":"Payer"}]}],"name":"Blue Cross Blue Shield of Texas","telecom":[{"system":"phone","value":"(+1) 972-766-6900"}],"address":[{"use":"billing","type":"postal","line":["P.O. Box 660044"],"city":"Dallas","state":"TX","postalCode":"75266-0044","country":"USA"}]},"request":{"method":"PUT","url":"Organization/e75793c9-fdf6-463a-8c1d-4ee44320dc25"}},{"fullUrl":"https://madie.cms.gov/Practitioner/e2edfc5f-d4d2-4037-baf5-08d88a3b07c1","resource":{"resourceType":"Practitioner","id":"e2edfc5f-d4d2-4037-baf5-08d88a3b07c1","meta":{"profile":["http://hl7.org/fhir/us/qicore/StructureDefinition/qicore-practitioner"]},"identifier":[{"system":"http://hl7.org/fhir/sid/us-npi","value":"123456"}],"name":[{"family":"Evil","prefix":["Dr"]}]},"request":{"method":"PUT","url":"Practitioner/e2edfc5f-d4d2-4037-baf5-08d88a3b07c1"}},{"fullUrl":"https://madie.cms.gov/MeasureReport/55b7ce44-bbf7-427f-ada0-a5c4e937bbbd","resource":{"resourceType":"MeasureReport","id":"55b7ce44-bbf7-427f-ada0-a5c4e937bbbd","meta":{"profile":["http://hl7.org/fhir/us/cqfmeasures/StructureDefinition/test-case-cqfm"]},"contained":[{"resourceType":"Parameters","id":"f44113af-26b9-449a-9971-f1f0f2319cff-parameters","parameter":[{"name":"subject","valueString":"e360ffc2-5b98-425a-a2bd-b051ba5ec506"}]}],"extension":[{"url":"http://hl7.org/fhir/us/cqfmeasures/StructureDefinition/cqfm-inputParameters","valueReference":{"reference":"#f44113af-26b9-449a-9971-f1f0f2319cff-parameters"}},{"url":"http://hl7.org/fhir/us/cqfmeasures/StructureDefinition/cqfm-testCaseDescription","valueMarkdown":"Inpatient encounter where patient started in ER prior to admission. Age 17 in ER, turned 18 at exact date as start of IP encounter, meds administered, no lab tests. Edge case. Denominator pass."}],"modifierExtension":[{"url":"http://hl7.org/fhir/us/cqfmeasures/StructureDefinition/cqfm-isTestCase","valueBoolean":true}],"status":"complete","type":"individual","measure":"https://madie.cms.gov/Measure/HospitalHarmSevereHypoglycemiaFHIR","period":{"start":"2026-01-01","end":"2026-12-31"},"group":[{"population":[{"code":{"coding":[{"system":"http://terminology.hl7.org/CodeSystem/measure-population","code":"initial-population","display":"Initial Population"}]},"count":1},{"code":{"coding":[{"system":"http://terminology.hl7.org/CodeSystem/measure-population","code":"denominator","display":"Denominator"}]},"count":1},{"code":{"coding":[{"system":"http://terminology.hl7.org/CodeSystem/measure-population","code":"numerator","display":"Numerator"}]},"count":0}]}]},"request":{"method":"PUT","url":"MeasureReport/55b7ce44-bbf7-427f-ada0-a5c4e937bbbd"}}]}