{
  "resourceType": "Bundle",
  "id": "DENEXFail-ReviTHAProcDiffDayAsTHAProc",
  "type": "transaction",
  "entry": [ {
    "fullUrl": "https://madie.cms.gov/Patient/91dc3d7e-1692-4630-bfa7-13477b79147f",
    "resource": {
      "resourceType": "Patient",
      "id": "91dc3d7e-1692-4630-bfa7-13477b79147f",
      "meta": {
        "profile": [ "http://hl7.org/fhir/us/qicore/StructureDefinition/qicore-patient" ]
      },
      "extension": [ {
        "url": "http://hl7.org/fhir/us/core/StructureDefinition/us-core-race",
        "extension": [ {
          "url": "ombCategory",
          "valueCoding": {
            "system": "urn:oid:2.16.840.1.113883.6.238",
            "code": "2028-9",
            "display": "Asian"
          }
        }, {
          "url": "text",
          "valueString": "Asian"
        } ]
      }, {
        "url": "http://hl7.org/fhir/us/core/StructureDefinition/us-core-ethnicity",
        "extension": [ {
          "url": "ombCategory",
          "valueCoding": {
            "system": "urn:oid:2.16.840.1.113883.6.238",
            "code": "2135-2",
            "display": "Hispanic or Latino"
          }
        }, {
          "url": "text",
          "valueString": "Hispanic or Latino"
        } ]
      } ],
      "identifier": [ {
        "system": "http://hospital.smarthealthit.org",
        "value": "999999995"
      } ],
      "name": [ {
        "family": "Bertha",
        "given": [ "Betty" ]
      } ],
      "gender": "female",
      "birthDate": "2006-01-01"
    },
    "request": {
      "method": "POST",
      "url": "Patient/91dc3d7e-1692-4630-bfa7-13477b79147f"
    }
  }, {
    "fullUrl": "https://madie.cms.gov/Procedure/Procedure-18",
    "resource": {
      "resourceType": "Procedure",
      "id": "Procedure-18",
      "meta": {
        "profile": [ "http://hl7.org/fhir/us/qicore/StructureDefinition/qicore-procedure" ]
      },
      "extension": [ {
        "url": "http://hl7.org/fhir/us/qicore/StructureDefinition/qicore-recorded",
        "valueDateTime": "2025-11-01T00:00:00.000Z"
      } ],
      "status": "completed",
      "code": {
        "coding": [ {
          "system": "http://www.cms.gov/Medicare/Coding/ICD10",
          "code": "0SR9019",
          "display": "Replacement of Right Hip Joint with Metal Synthetic Substitute, Cemented, Open Approach"
        } ]
      },
      "subject": {
        "reference": "Patient/91dc3d7e-1692-4630-bfa7-13477b79147f"
      },
      "performedPeriod": {
        "start": "2023-11-01T00:00:00.000Z",
        "end": "2023-11-01T01:00:00.000Z"
      }
    },
    "request": {
      "method": "POST",
      "url": "Procedure/Procedure-18"
    }
  }, {
    "fullUrl": "https://madie.cms.gov/Encounter/Encounter-18",
    "resource": {
      "resourceType": "Encounter",
      "id": "Encounter-18",
      "meta": {
        "profile": [ "http://hl7.org/fhir/us/qicore/StructureDefinition/qicore-encounter" ]
      },
      "status": "finished",
      "class": {
        "system": "http://terminology.hl7.org/CodeSystem/v3-ActCode",
        "code": "AMB",
        "display": "ambulatory"
      },
      "type": [ {
        "coding": [ {
          "system": "http://snomed.info/sct",
          "code": "281036007",
          "display": "Follow-up consultation (procedure)"
        } ]
      } ],
      "subject": {
        "reference": "Patient/91dc3d7e-1692-4630-bfa7-13477b79147f"
      },
      "period": {
        "start": "2024-11-01T00:00:00.000Z",
        "end": "2024-11-01T01:15:00.000Z"
      }
    },
    "request": {
      "method": "POST",
      "url": "Encounter/Encounter-18"
    }
  }, {
    "fullUrl": "https://madie.cms.gov/Procedure/Procedure-18.1",
    "resource": {
      "resourceType": "Procedure",
      "id": "Procedure-18.1",
      "meta": {
        "profile": [ "http://hl7.org/fhir/us/qicore/StructureDefinition/qicore-procedure" ]
      },
      "extension": [ {
        "url": "http://hl7.org/fhir/us/qicore/StructureDefinition/qicore-recorded",
        "valueDateTime": "2023-11-02T00:00:00.000Z"
      } ],
      "status": "completed",
      "code": {
        "coding": [ {
          "system": "http://www.cms.gov/Medicare/Coding/ICD10",
          "code": "0QP604Z",
          "display": "Removal of Internal Fixation Device from Right Upper Femur, Open Approach"
        } ]
      },
      "subject": {
        "reference": "Patient/91dc3d7e-1692-4630-bfa7-13477b79147f"
      },
      "performedPeriod": {
        "start": "2023-11-02T00:00:00.000Z",
        "end": "2023-11-02T01:00:00.000Z"
      }
    },
    "request": {
      "method": "POST",
      "url": "Procedure/Procedure-18.1"
    }
  }, {
    "fullUrl": "https://madie.cms.gov/MeasureReport/90f56d58-6f0b-4097-a2be-69880eaf6f50",
    "resource": {
      "resourceType": "MeasureReport",
      "id": "90f56d58-6f0b-4097-a2be-69880eaf6f50",
      "meta": {
        "profile": [ "http://hl7.org/fhir/us/cqfmeasures/StructureDefinition/test-case-cqfm" ]
      },
      "contained": [ {
        "resourceType": "Parameters",
        "id": "207a2832-6998-4b1d-9e13-9a1e89df2293-parameters",
        "parameter": [ {
          "name": "subject",
          "valueString": "91dc3d7e-1692-4630-bfa7-13477b79147f"
        } ]
      } ],
      "extension": [ {
        "url": "http://hl7.org/fhir/us/cqfmeasures/StructureDefinition/cqfm-inputParameters",
        "valueReference": {
          "reference": "#207a2832-6998-4b1d-9e13-9a1e89df2293-parameters"
        }
      }, {
        "url": "http://hl7.org/fhir/us/cqfmeasures/StructureDefinition/cqfm-testCaseDescription",
        "valueMarkdown": "Patient Has Revision THAProcedure on a different day than THAProcedure"
      } ],
      "modifierExtension": [ {
        "url": "http://hl7.org/fhir/us/cqfmeasures/StructureDefinition/cqfm-isTestCase",
        "valueBoolean": true
      } ],
      "status": "complete",
      "type": "individual",
      "measure": "https://madie.cms.gov/Measure/FunctionalStatusAssessmentforTotalHipReplacementFHIR",
      "period": {
        "start": "2025-01-01",
        "end": "2025-12-31"
      },
      "group": [ {
        "population": [ {
          "code": {
            "coding": [ {
              "system": "http://terminology.hl7.org/CodeSystem/measure-population",
              "code": "initial-population",
              "display": "Initial Population"
            } ]
          },
          "count": 1
        }, {
          "code": {
            "coding": [ {
              "system": "http://terminology.hl7.org/CodeSystem/measure-population",
              "code": "denominator",
              "display": "Denominator"
            } ]
          },
          "count": 1
        }, {
          "code": {
            "coding": [ {
              "system": "http://terminology.hl7.org/CodeSystem/measure-population",
              "code": "denominator-exclusion",
              "display": "Denominator Exclusion"
            } ]
          },
          "count": 0
        }, {
          "code": {
            "coding": [ {
              "system": "http://terminology.hl7.org/CodeSystem/measure-population",
              "code": "numerator",
              "display": "Numerator"
            } ]
          },
          "count": 0
        } ]
      } ],
      "evaluatedResource": [ {
        "reference": "https://madie.cms.gov/Patient/91dc3d7e-1692-4630-bfa7-13477b79147f"
      }, {
        "reference": "https://madie.cms.gov/Procedure/Procedure-18"
      }, {
        "reference": "https://madie.cms.gov/Encounter/Encounter-18"
      }, {
        "reference": "https://madie.cms.gov/Procedure/Procedure-18.1"
      } ]
    },
    "request": {
      "method": "POST",
      "url": "MeasureReport/90f56d58-6f0b-4097-a2be-69880eaf6f50"
    }
  } ]
}