{
  "resourceType": "Bundle",
  "id": "63ec09a6ccb3770120feab23",
  "type": "transaction",
  "entry": [ {
    "fullUrl": "https://madie.cms.gov/Patient/cae21936-62ee-468a-abf4-18232d993576",
    "resource": {
      "resourceType": "Patient",
      "id": "cae21936-62ee-468a-abf4-18232d993576",
      "meta": {
        "profile": [ "http://hl7.org/fhir/us/qicore/StructureDefinition/qicore-patient" ]
      },
      "text": {
        "status": "generated",
        "div": "<div xmlns=\"http://www.w3.org/1999/xhtml\"><div class=\"hapiHeaderText\">WeightSBP_relevantDT <b>COMBO1 </b></div><table class=\"hapiPropertyTable\"><tbody><tr><td>Identifier</td><td>647b828a576e8c34eaa21fd1cdb85d1e5f291be13e6a5c34a9fc817d4466c0f5</td></tr><tr><td>Date of birth</td><td><span>15 June 1947</span></td></tr></tbody></table></div>"
      },
      "extension": [ {
        "url": "http://hl7.org/fhir/us/core/StructureDefinition/us-core-race",
        "extension": [ {
          "url": "ombCategory",
          "valueCoding": {
            "system": "urn:oid:2.16.840.1.113883.6.238",
            "code": "1002-5",
            "display": "American Indian or Alaska Native",
            "userSelected": true
          }
        }, {
          "url": "text",
          "valueString": "American Indian or Alaska Native"
        } ]
      }, {
        "url": "http://hl7.org/fhir/us/core/StructureDefinition/us-core-ethnicity",
        "extension": [ {
          "url": "ombCategory",
          "valueCoding": {
            "system": "urn:oid:2.16.840.1.113883.6.238",
            "code": "2186-5",
            "display": "Not Hispanic or Latino",
            "userSelected": true
          }
        }, {
          "url": "text",
          "valueString": "Not Hispanic or Latino"
        } ]
      } ],
      "identifier": [ {
        "type": {
          "coding": [ {
            "system": "http://terminology.hl7.org/CodeSystem/v2-0203",
            "code": "MR"
          } ]
        },
        "system": "https://bonnie-fhir.healthit.gov/",
        "value": "63ec09a6ccb3770120feab23"
      } ],
      "active": true,
      "name": [ {
        "use": "usual",
        "family": "WeightPassandSystolicBPFail",
        "given": [ "WeightInTimingIntervalSBPOutsideTimingInterval" ]
      } ],
      "gender": "male",
      "birthDate": "1947-06-15"
    },
    "request": {
      "method": "PUT",
      "url": "Patient/cae21936-62ee-468a-abf4-18232d993576"
    }
  }, {
    "fullUrl": "https://madie.cms.gov/Encounter/5dc2d9d1831f330000d73fd7",
    "resource": {
      "resourceType": "Encounter",
      "id": "5dc2d9d1831f330000d73fd7",
      "meta": {
        "profile": [ "http://hl7.org/fhir/us/qicore/StructureDefinition/qicore-encounter" ]
      },
      "status": "finished",
      "class": {
        "system": "http://terminology.hl7.org/CodeSystem/v3-ActCode",
        "code": "ACUTE",
        "display": "Acute",
        "userSelected": true
      },
      "type": [ {
        "coding": [ {
          "system": "http://snomed.info/sct",
          "code": "183452005"
        } ]
      } ],
      "subject": {
        "reference": "Patient/cae21936-62ee-468a-abf4-18232d993576"
      },
      "period": {
        "start": "2025-08-18T08:00:00.000+00:00",
        "end": "2025-08-23T08:15:00.000+00:00"
      }
    },
    "request": {
      "method": "PUT",
      "url": "Encounter/5dc2d9d1831f330000d73fd7"
    }
  }, {
    "fullUrl": "https://madie.cms.gov/Observation/5b562aebb84846558c53c155",
    "resource": {
      "resourceType": "Observation",
      "id": "5b562aebb84846558c53c155",
      "meta": {
        "profile": [ "http://hl7.org/fhir/StructureDefinition/bodyweight" ]
      },
      "status": "amended",
      "category": [ {
        "coding": [ {
          "system": "http://terminology.hl7.org/CodeSystem/observation-category",
          "code": "vital-signs",
          "display": "Vital Signs",
          "userSelected": true
        } ]
      } ],
      "code": {
        "coding": [ {
          "system": "http://loinc.org",
          "code": "29463-7",
          "display": "Body weight"
        } ]
      },
      "subject": {
        "reference": "Patient/cae21936-62ee-468a-abf4-18232d993576"
      },
      "effectiveDateTime": "2025-08-20T07:59:00.000+00:00",
      "valueQuantity": {
        "value": 170.0,
        "unit": "[lb_av]",
        "system": "http://unitsofmeasure.org",
        "code": "[lb_av]"
      }
    },
    "request": {
      "method": "PUT",
      "url": "Observation/5b562aebb84846558c53c155"
    }
  }, {
    "fullUrl": "https://madie.cms.gov/Observation/blood-pressure-3",
    "resource": {
      "resourceType": "Observation",
      "id": "blood-pressure-3",
      "meta": {
        "profile": [ "http://hl7.org/fhir/StructureDefinition/bp" ]
      },
      "status": "final",
      "category": [ {
        "coding": [ {
          "system": "http://terminology.hl7.org/CodeSystem/observation-category",
          "code": "vital-signs",
          "display": "Vital Signs"
        } ],
        "text": "Vital Signs"
      } ],
      "code": {
        "coding": [ {
          "system": "http://loinc.org",
          "code": "85354-9",
          "display": "Blood pressure panel"
        } ]
      },
      "subject": {
        "reference": "Patient/cae21936-62ee-468a-abf4-18232d993576"
      },
      "effectiveDateTime": "2025-08-21T10:10:00.000+00:00",
      "component": [ {
        "code": {
          "coding": [ {
            "system": "http://loinc.org",
            "code": "8480-6",
            "display": "Systolic blood pressure"
          } ]
        },
        "valueQuantity": {
          "value": 140,
          "unit": "mm[Hg]",
          "system": "http://unitsofmeasure.org",
          "code": "mm[Hg]"
        }
      }, {
        "code": {
          "coding": [ {
            "system": "http://loinc.org",
            "code": "8462-4",
            "display": "Diastolic blood pressure"
          } ]
        },
        "valueQuantity": {
          "value": 80,
          "unit": "mm[Hg]",
          "system": "http://unitsofmeasure.org",
          "code": "mm[Hg]"
        }
      } ]
    },
    "request": {
      "method": "PUT",
      "url": "Observation/blood-pressure-3"
    }
  }, {
    "fullUrl": "https://madie.cms.gov/Observation/5b562aebb84846558c53c15b",
    "resource": {
      "resourceType": "Observation",
      "id": "5b562aebb84846558c53c15b",
      "meta": {
        "profile": [ "http://hl7.org/fhir/StructureDefinition/bodyweight" ]
      },
      "status": "final",
      "category": [ {
        "coding": [ {
          "system": "http://terminology.hl7.org/CodeSystem/observation-category",
          "code": "vital-signs",
          "display": "Vital Signs",
          "userSelected": true
        } ]
      } ],
      "code": {
        "coding": [ {
          "system": "http://loinc.org",
          "code": "29463-7",
          "display": "Body weight"
        } ]
      },
      "subject": {
        "reference": "Patient/cae21936-62ee-468a-abf4-18232d993576"
      },
      "effectiveDateTime": "2025-08-22T07:59:00.000+00:00",
      "valueQuantity": {
        "value": 165.0,
        "unit": "[lb_av]",
        "system": "http://unitsofmeasure.org",
        "code": "[lb_av]"
      }
    },
    "request": {
      "method": "PUT",
      "url": "Observation/5b562aebb84846558c53c15b"
    }
  }, {
    "fullUrl": "https://madie.cms.gov/Coverage/medicare-ffs-payer-2a01",
    "resource": {
      "resourceType": "Coverage",
      "id": "medicare-ffs-payer-2a01",
      "meta": {
        "profile": [ "http://hl7.org/fhir/us/qicore/StructureDefinition/qicore-coverage" ]
      },
      "status": "active",
      "type": {
        "coding": [ {
          "system": "https://nahdo.org/sopt",
          "version": "1.0.1",
          "code": "1",
          "display": "Medicare payer",
          "userSelected": true
        } ]
      },
      "beneficiary": {
        "reference": "Patient/cae21936-62ee-468a-abf4-18232d993576"
      },
      "period": {
        "start": "2020-07-19T08:00:00.000+00:00"
      },
      "payor": [ {
        "reference": "Organization/Org-123456"
      } ]
    },
    "request": {
      "method": "PUT",
      "url": "Coverage/medicare-ffs-payer-2a01"
    }
  }, {
    "fullUrl": "https://madie.cms.gov/Organization/123456",
    "resource": {
      "resourceType": "Organization",
      "id": "Org-123456",
      "meta": {
        "profile": [ "http://hl7.org/fhir/us/qicore/StructureDefinition/qicore-organization" ]
      },
      "identifier": [ {
        "use": "temp",
        "system": "urn:oid:2.16.840.1.113883.4.4",
        "value": "21-3259825"
      } ],
      "active": true,
      "type": [ {
        "coding": [ {
          "system": "http://terminology.hl7.org/CodeSystem/organization-type",
          "code": "pay",
          "display": "Payer"
        } ]
      } ],
      "name": "Blue Cross Blue Shield of Texas",
      "telecom": [ {
        "system": "phone",
        "value": "(+1) 972-766-6900"
      } ],
      "address": [ {
        "use": "billing",
        "type": "postal",
        "line": [ "P.O. Box 660044" ],
        "city": "Dallas",
        "state": "TX",
        "postalCode": "75266-0044",
        "country": "USA"
      } ]
    },
    "request": {
      "method": "PUT",
      "url": "Organization/Org-123456"
    }
  }, {
    "fullUrl": "https://madie.cms.gov/Practitioner/practitioner-123456",
    "resource": {
      "resourceType": "Practitioner",
      "id": "practitioner-123456",
      "meta": {
        "profile": [ "http://hl7.org/fhir/us/qicore/StructureDefinition/qicore-practitioner" ]
      },
      "identifier": [ {
        "system": "http://hl7.org/fhir/sid/us-npi",
        "value": "123456"
      } ],
      "name": [ {
        "family": "Evil",
        "prefix": [ "Dr" ]
      } ]
    },
    "request": {
      "method": "PUT",
      "url": "Practitioner/practitioner-123456"
    }
  }, {
    "fullUrl": "https://madie.cms.gov/MeasureReport/a1d36dea-ce0a-4748-8391-499d8576f700",
    "resource": {
      "resourceType": "MeasureReport",
      "id": "a1d36dea-ce0a-4748-8391-499d8576f700",
      "meta": {
        "profile": [ "http://hl7.org/fhir/us/cqfmeasures/StructureDefinition/test-case-cqfm" ]
      },
      "contained": [ {
        "resourceType": "Parameters",
        "id": "cabe19f1-0156-48d9-a308-89aff3043a2d-parameters",
        "parameter": [ {
          "name": "subject",
          "valueString": "cae21936-62ee-468a-abf4-18232d993576"
        } ]
      } ],
      "extension": [ {
        "url": "http://hl7.org/fhir/us/cqfmeasures/StructureDefinition/cqfm-inputParameters",
        "valueReference": {
          "reference": "#cabe19f1-0156-48d9-a308-89aff3043a2d-parameters"
        }
      }, {
        "url": "http://hl7.org/fhir/us/cqfmeasures/StructureDefinition/cqfm-testCaseDescription",
        "valueMarkdown": "Systolic blood pressure results not in encounter timing interval. \nSystolic blood pressure results not included in measure results.  \nBoth body weight exams occur within encounter timing interval.\nResults of first occurring exam in measure results. "
      } ],
      "modifierExtension": [ {
        "url": "http://hl7.org/fhir/us/cqfmeasures/StructureDefinition/cqfm-isTestCase",
        "valueBoolean": true
      } ],
      "status": "complete",
      "type": "individual",
      "measure": "https://madie.cms.gov/Measure/HybridHospitalWideReadmissionFHIR",
      "period": {
        "start": "2025-07-01",
        "end": "2026-06-30"
      },
      "group": [ {
        "population": [ {
          "code": {
            "coding": [ {
              "system": "http://terminology.hl7.org/CodeSystem/measure-population",
              "code": "initial-population",
              "display": "Initial Population"
            } ]
          },
          "count": 1
        } ]
      } ],
      "evaluatedResource": [ {
        "reference": "Patient/cae21936-62ee-468a-abf4-18232d993576"
      }, {
        "reference": "Encounter/5dc2d9d1831f330000d73fd7"
      }, {
        "reference": "Observation/5b562aebb84846558c53c155"
      }, {
        "reference": "Observation/blood-pressure-3"
      }, {
        "reference": "Observation/5b562aebb84846558c53c15b"
      }, {
        "reference": "Coverage/medicare-ffs-payer-2a01"
      }, {
        "reference": "Organization/Org-123456"
      }, {
        "reference": "Practitioner/practitioner-123456"
      } ]
    },
    "request": {
      "method": "PUT",
      "url": "MeasureReport/a1d36dea-ce0a-4748-8391-499d8576f700"
    }
  } ]
}