{
  "resourceType": "Bundle",
  "id": "Patient-9-IPPass-PregnancyTestDurMP",
  "type": "transaction",
  "entry": [ {
    "fullUrl": "https://madie.cms.gov/Patient/1705efe6-4216-4263-9e26-07d7a334801c",
    "resource": {
      "resourceType": "Patient",
      "id": "1705efe6-4216-4263-9e26-07d7a334801c",
      "meta": {
        "profile": [ "http://hl7.org/fhir/us/qicore/StructureDefinition/qicore-patient" ]
      },
      "extension": [ {
        "url": "http://hl7.org/fhir/us/core/StructureDefinition/us-core-race",
        "extension": [ {
          "url": "ombCategory",
          "valueCoding": {
            "system": "urn:oid:2.16.840.1.113883.6.238",
            "code": "2028-9",
            "display": "Asian"
          }
        }, {
          "url": "text",
          "valueString": "Asian"
        } ]
      }, {
        "url": "http://hl7.org/fhir/us/core/StructureDefinition/us-core-ethnicity",
        "extension": [ {
          "url": "ombCategory",
          "valueCoding": {
            "system": "urn:oid:2.16.840.1.113883.6.238",
            "code": "2135-2",
            "display": "Hispanic or Latino"
          }
        }, {
          "url": "text",
          "valueString": "Hispanic or Latino"
        } ]
      } ],
      "identifier": [ {
        "system": "http://hospital.smarthealthit.org",
        "value": "999999995"
      } ],
      "name": [ {
        "family": "Bertha",
        "given": [ "Betty" ]
      } ],
      "gender": "female",
      "birthDate": "2008-12-31"
    },
    "request": {
      "method": "PUT",
      "url": "Patient/1705efe6-4216-4263-9e26-07d7a334801c"
    }
  }, {
    "fullUrl": "https://madie.cms.gov/Encounter/Encounter-9",
    "resource": {
      "resourceType": "Encounter",
      "id": "Encounter-9",
      "meta": {
        "profile": [ "http://hl7.org/fhir/us/qicore/StructureDefinition/qicore-encounter" ]
      },
      "status": "finished",
      "class": {
        "system": "http://terminology.hl7.org/CodeSystem/v3-ActCode",
        "code": "AMB",
        "display": "ambulatory"
      },
      "type": [ {
        "coding": [ {
          "system": "http://www.ama-assn.org/go/cpt",
          "version": "2023",
          "code": "99394",
          "display": "Periodic comprehensive preventive medicine reevaluation and management of an individual including an age and gender appropriate history, examination, counseling/anticipatory guidance/risk factor reduction interventions, and the ordering of laboratory/diagnostic procedures, established patient; adolescent (age 12 through 17 years)"
        } ]
      } ],
      "subject": {
        "reference": "Patient/1705efe6-4216-4263-9e26-07d7a334801c"
      },
      "period": {
        "start": "2025-01-01T00:00:00.000Z",
        "end": "2025-01-01T00:15:00.000Z"
      }
    },
    "request": {
      "method": "PUT",
      "url": "Encounter/Encounter-9"
    }
  }, {
    "fullUrl": "https://madie.cms.gov/ServiceRequest/ServiceRequest-4",
    "resource": {
      "resourceType": "ServiceRequest",
      "id": "ServiceRequest-4",
      "meta": {
        "profile": [ "http://hl7.org/fhir/us/qicore/StructureDefinition/qicore-servicerequest" ]
      },
      "extension": [ {
        "url": "http://hl7.org/fhir/StructureDefinition/request-statusReason",
        "valueCodeableConcept": {
          "coding": [ {
            "system": "http://snomed.info/sct",
            "code": "15635006",
            "display": "Requested by Patient"
          } ]
        }
      } ],
      "status": "completed",
      "intent": "order",
      "category": [ {
        "coding": [ {
          "system": "http://snomed.info/sct",
          "code": "387713003",
          "display": "Surgical procedure"
        } ]
      } ],
      "priority": "routine",
      "code": {
        "coding": [ {
          "system": "http://loinc.org",
          "code": "19080-1",
          "display": "Choriogonadotropin [Units/volume] in Serum or Plasma"
        } ]
      },
      "subject": {
        "reference": "Patient/1705efe6-4216-4263-9e26-07d7a334801c"
      },
      "encounter": {
        "reference": "Encounter/Encounter-9"
      },
      "occurrenceDateTime": "2025-01-01",
      "authoredOn": "2025-01-01",
      "performerType": {
        "coding": [ {
          "system": "http://snomed.info/sct",
          "code": "405279007",
          "display": "Attending physician (occupation)"
        } ]
      },
      "reasonCode": [ {
        "coding": [ {
          "system": "http://snomed.info/sct",
          "code": "123614006",
          "display": "Partial Cataract (disorder)"
        } ]
      } ]
    },
    "request": {
      "method": "PUT",
      "url": "ServiceRequest/ServiceRequest-4"
    }
  }, {
    "fullUrl": "https://madie.cms.gov/MeasureReport/0a1565c8-5083-4b21-9473-ba99ca1d51a2",
    "resource": {
      "resourceType": "MeasureReport",
      "id": "0a1565c8-5083-4b21-9473-ba99ca1d51a2",
      "meta": {
        "profile": [ "http://hl7.org/fhir/us/cqfmeasures/StructureDefinition/test-case-cqfm" ]
      },
      "contained": [ {
        "resourceType": "Parameters",
        "id": "b1340837-d1ff-4c73-a4c9-4ff65921fd7e-parameters",
        "parameter": [ {
          "name": "subject",
          "valueString": "1705efe6-4216-4263-9e26-07d7a334801c"
        } ]
      } ],
      "extension": [ {
        "url": "http://hl7.org/fhir/us/cqfmeasures/StructureDefinition/cqfm-inputParameters",
        "valueReference": {
          "reference": "#b1340837-d1ff-4c73-a4c9-4ff65921fd7e-parameters"
        }
      }, {
        "url": "http://hl7.org/fhir/us/cqfmeasures/StructureDefinition/cqfm-testCaseDescription",
        "valueMarkdown": "Pregnancy test during measurement period"
      } ],
      "modifierExtension": [ {
        "url": "http://hl7.org/fhir/us/cqfmeasures/StructureDefinition/cqfm-isTestCase",
        "valueBoolean": true
      } ],
      "status": "complete",
      "type": "individual",
      "measure": "https://madie.cms.gov/Measure/ChlamydiaScreeninginWomenFHIR",
      "period": {
        "start": "2025-01-01",
        "end": "2025-12-31"
      },
      "group": [ {
        "population": [ {
          "code": {
            "coding": [ {
              "system": "http://terminology.hl7.org/CodeSystem/measure-population",
              "code": "initial-population",
              "display": "Initial Population"
            } ]
          },
          "count": 1
        }, {
          "code": {
            "coding": [ {
              "system": "http://terminology.hl7.org/CodeSystem/measure-population",
              "code": "denominator",
              "display": "Denominator"
            } ]
          },
          "count": 1
        }, {
          "code": {
            "coding": [ {
              "system": "http://terminology.hl7.org/CodeSystem/measure-population",
              "code": "denominator-exclusion",
              "display": "Denominator Exclusion"
            } ]
          },
          "count": 0
        }, {
          "code": {
            "coding": [ {
              "system": "http://terminology.hl7.org/CodeSystem/measure-population",
              "code": "numerator",
              "display": "Numerator"
            } ]
          },
          "count": 0
        } ]
      } ],
      "evaluatedResource": [ {
        "reference": "Patient/1705efe6-4216-4263-9e26-07d7a334801c"
      }, {
        "reference": "Encounter/Encounter-9"
      }, {
        "reference": "ServiceRequest/ServiceRequest-4"
      } ]
    },
    "request": {
      "method": "PUT",
      "url": "MeasureReport/0a1565c8-5083-4b21-9473-ba99ca1d51a2"
    }
  } ]
}