{
  "resourceType": "Bundle",
  "id": "Patient-10-DENEXFail-CompetingDiag5DaysAfterEDate",
  "type": "transaction",
  "entry": [ {
    "fullUrl": "https://madie.cms.gov/Patient/abdf7bcb-90b7-42d4-aef6-175f34ea9a1d",
    "resource": {
      "resourceType": "Patient",
      "id": "abdf7bcb-90b7-42d4-aef6-175f34ea9a1d",
      "meta": {
        "profile": [ "http://hl7.org/fhir/us/qicore/StructureDefinition/qicore-patient" ]
      },
      "extension": [ {
        "url": "http://hl7.org/fhir/us/core/StructureDefinition/us-core-race",
        "extension": [ {
          "url": "ombCategory",
          "valueCoding": {
            "system": "urn:oid:2.16.840.1.113883.6.238",
            "code": "2028-9",
            "display": "Asian"
          }
        }, {
          "url": "text",
          "valueString": "Asian"
        } ]
      }, {
        "url": "http://hl7.org/fhir/us/core/StructureDefinition/us-core-ethnicity",
        "extension": [ {
          "url": "ombCategory",
          "valueCoding": {
            "system": "urn:oid:2.16.840.1.113883.6.238",
            "code": "2135-2",
            "display": "Hispanic or Latino"
          }
        }, {
          "url": "text",
          "valueString": "Hispanic or Latino"
        } ]
      } ],
      "identifier": [ {
        "system": "http://hospital.smarthealthit.org",
        "value": "999999995"
      } ],
      "name": [ {
        "family": "Bertha",
        "given": [ "Betty" ]
      } ],
      "gender": "female",
      "birthDate": "2024-10-01"
    },
    "request": {
      "method": "PUT",
      "url": "Patient/abdf7bcb-90b7-42d4-aef6-175f34ea9a1d"
    }
  }, {
    "fullUrl": "https://madie.cms.gov/Encounter/Encounter-15",
    "resource": {
      "resourceType": "Encounter",
      "id": "Encounter-15",
      "meta": {
        "profile": [ "http://hl7.org/fhir/us/qicore/StructureDefinition/qicore-encounter" ]
      },
      "status": "finished",
      "class": {
        "system": "http://terminology.hl7.org/CodeSystem/v3-ActCode",
        "code": "AMB",
        "display": "ambulatory"
      },
      "type": [ {
        "coding": [ {
          "system": "http://snomed.info/sct",
          "code": "185317003",
          "display": "Telephone encounter (procedure)"
        } ]
      } ],
      "subject": {
        "reference": "Patient/abdf7bcb-90b7-42d4-aef6-175f34ea9a1d"
      },
      "period": {
        "start": "2025-01-01T01:00:00.000Z",
        "end": "2025-01-01T01:15:00.000Z"
      }
    },
    "request": {
      "method": "PUT",
      "url": "Encounter/Encounter-15"
    }
  }, {
    "fullUrl": "https://madie.cms.gov/Condition/Condition-13",
    "resource": {
      "resourceType": "Condition",
      "id": "Condition-13",
      "meta": {
        "profile": [ "http://hl7.org/fhir/us/qicore/StructureDefinition/qicore-condition" ]
      },
      "clinicalStatus": {
        "coding": [ {
          "system": "http://terminology.hl7.org/CodeSystem/condition-clinical",
          "code": "active"
        } ]
      },
      "category": [ {
        "coding": [ {
          "system": "http://terminology.hl7.org/CodeSystem/condition-category",
          "code": "problem-list-item",
          "display": "Problem List Item"
        } ]
      } ],
      "code": {
        "coding": [ {
          "system": "http://snomed.info/sct",
          "code": "54398005",
          "display": "Acute upper respiratory infection (disorder)"
        } ]
      },
      "subject": {
        "reference": "Patient/abdf7bcb-90b7-42d4-aef6-175f34ea9a1d"
      },
      "onsetDateTime": "2025-01-01T01:00:00.000Z"
    },
    "request": {
      "method": "PUT",
      "url": "Condition/Condition-13"
    }
  }, {
    "fullUrl": "https://madie.cms.gov/Condition/Condition-14",
    "resource": {
      "resourceType": "Condition",
      "id": "Condition-14",
      "meta": {
        "profile": [ "http://hl7.org/fhir/us/qicore/StructureDefinition/qicore-condition" ]
      },
      "clinicalStatus": {
        "coding": [ {
          "system": "http://terminology.hl7.org/CodeSystem/condition-clinical",
          "code": "active"
        } ]
      },
      "category": [ {
        "coding": [ {
          "system": "http://terminology.hl7.org/CodeSystem/condition-category",
          "code": "problem-list-item",
          "display": "Problem List Item"
        } ]
      } ],
      "code": {
        "coding": [ {
          "system": "http://snomed.info/sct",
          "code": "102361000119104",
          "display": "Chronic pneumonia (disorder)"
        } ]
      },
      "subject": {
        "reference": "Patient/abdf7bcb-90b7-42d4-aef6-175f34ea9a1d"
      },
      "onsetDateTime": "2025-01-06T00:00:00.000Z"
    },
    "request": {
      "method": "PUT",
      "url": "Condition/Condition-14"
    }
  }, {
    "fullUrl": "https://madie.cms.gov/MeasureReport/4ceb522c-4460-4d57-a338-7bb65a8ccf41",
    "resource": {
      "resourceType": "MeasureReport",
      "id": "4ceb522c-4460-4d57-a338-7bb65a8ccf41",
      "meta": {
        "profile": [ "http://hl7.org/fhir/us/cqfmeasures/StructureDefinition/test-case-cqfm" ]
      },
      "contained": [ {
        "resourceType": "Parameters",
        "id": "0232a2f5-7562-40bf-a1fc-f976a8ebb890-parameters",
        "parameter": [ {
          "name": "subject",
          "valueString": "abdf7bcb-90b7-42d4-aef6-175f34ea9a1d"
        } ]
      } ],
      "extension": [ {
        "url": "http://hl7.org/fhir/us/cqfmeasures/StructureDefinition/cqfm-inputParameters",
        "valueReference": {
          "reference": "#0232a2f5-7562-40bf-a1fc-f976a8ebb890-parameters"
        }
      }, {
        "url": "http://hl7.org/fhir/us/cqfmeasures/StructureDefinition/cqfm-testCaseDescription",
        "valueMarkdown": "Competing diagnosis 4 days after episode date"
      } ],
      "modifierExtension": [ {
        "url": "http://hl7.org/fhir/us/cqfmeasures/StructureDefinition/cqfm-isTestCase",
        "valueBoolean": true
      } ],
      "status": "complete",
      "type": "individual",
      "measure": "https://madie.cms.gov/Measure/AppropriateTreatmentforUpperRespiratoryInfectionURIFHIR",
      "period": {
        "start": "2025-01-01",
        "end": "2025-12-31"
      },
      "group": [ {
        "population": [ {
          "code": {
            "coding": [ {
              "system": "http://terminology.hl7.org/CodeSystem/measure-population",
              "code": "initial-population",
              "display": "Initial Population"
            } ]
          },
          "count": 1
        }, {
          "code": {
            "coding": [ {
              "system": "http://terminology.hl7.org/CodeSystem/measure-population",
              "code": "denominator",
              "display": "Denominator"
            } ]
          },
          "count": 1
        }, {
          "code": {
            "coding": [ {
              "system": "http://terminology.hl7.org/CodeSystem/measure-population",
              "code": "denominator-exclusion",
              "display": "Denominator Exclusion"
            } ]
          },
          "count": 0
        }, {
          "code": {
            "coding": [ {
              "system": "http://terminology.hl7.org/CodeSystem/measure-population",
              "code": "numerator",
              "display": "Numerator"
            } ]
          },
          "count": 1
        } ]
      } ],
      "evaluatedResource": [ {
        "reference": "Patient/abdf7bcb-90b7-42d4-aef6-175f34ea9a1d"
      }, {
        "reference": "Encounter/Encounter-15"
      }, {
        "reference": "Condition/Condition-13"
      }, {
        "reference": "Condition/Condition-14"
      } ]
    },
    "request": {
      "method": "PUT",
      "url": "MeasureReport/4ceb522c-4460-4d57-a338-7bb65a8ccf41"
    }
  } ]
}
