{
  "resourceType": "Bundle",
  "id": "60f82c2f98086b570510e2c4",
  "type": "transaction",
  "entry": [ {
    "fullUrl": "https://madie.cms.gov/Patient/b3043789-f91a-42f6-848d-6bfd7df331fe",
    "resource": {
      "resourceType": "Patient",
      "id": "b3043789-f91a-42f6-848d-6bfd7df331fe",
      "meta": {
        "profile": [ "http://hl7.org/fhir/us/qicore/StructureDefinition/qicore-patient" ]
      },
      "text": {
        "status": "generated",
        "div": "<div xmlns=\"http://www.w3.org/1999/xhtml\"><div class=\"hapiHeaderText\">tPADuringInPatientEnc1DayAfterAdmit <b>DENEXPASS-LCG </b></div><table class=\"hapiPropertyTable\"><tbody><tr><td>Identifier</td><td>44863becbb7051abd5e1dad02ddaf594356b765d18873c1d70b102e9efc8cd0b</td></tr><tr><td>Date of birth</td><td><span>26 September 1975</span></td></tr></tbody></table></div>"
      },
      "extension": [ {
        "url": "http://hl7.org/fhir/us/core/StructureDefinition/us-core-race",
        "extension": [ {
          "url": "ombCategory",
          "valueCoding": {
            "system": "urn:oid:2.16.840.1.113883.6.238",
            "code": "2054-5",
            "display": "Black or African American",
            "userSelected": true
          }
        }, {
          "url": "text",
          "valueString": "Black or African American"
        } ]
      }, {
        "url": "http://hl7.org/fhir/us/core/StructureDefinition/us-core-ethnicity",
        "extension": [ {
          "url": "ombCategory",
          "valueCoding": {
            "system": "urn:oid:2.16.840.1.113883.6.238",
            "code": "2186-5",
            "display": "Not Hispanic or Latino",
            "userSelected": true
          }
        }, {
          "url": "text",
          "valueString": "Not Hispanic or Latino"
        } ]
      } ],
      "identifier": [ {
        "type": {
          "coding": [ {
            "system": "http://terminology.hl7.org/CodeSystem/v2-0203",
            "code": "MR"
          } ]
        },
        "system": "https://bonnie-fhir.healthit.gov/",
        "value": "60f82c2f98086b570510e2c4"
      } ],
      "active": true,
      "name": [ {
        "use": "usual",
        "family": "DENEXPass-LCG",
        "given": [ "tPADuringInPatientEnc1DayAfterAdmit" ]
      } ],
      "gender": "female",
      "birthDate": "1975-09-26"
    },
    "request": {
      "method": "PUT",
      "url": "Patient/b3043789-f91a-42f6-848d-6bfd7df331fe"
    }
  }, {
    "fullUrl": "https://madie.cms.gov/Encounter/5ce6d13eb84846725ea458eb",
    "resource": {
      "resourceType": "Encounter",
      "id": "5ce6d13eb84846725ea458eb",
      "meta": {
        "profile": [ "http://hl7.org/fhir/us/qicore/StructureDefinition/qicore-encounter" ]
      },
      "status": "finished",
      "class": {
        "system": "http://terminology.hl7.org/CodeSystem/v3-ActCode",
        "code": "EMER",
        "display": "emergency"
      },
      "type": [ {
        "coding": [ {
          "system": "http://snomed.info/sct",
          "code": "4525004"
        } ]
      } ],
      "subject": {
        "reference": "Patient/b3043789-f91a-42f6-848d-6bfd7df331fe"
      },
      "period": {
        "start": "2025-10-10T04:00:00+00:00",
        "end": "2025-10-10T10:30:00+00:00"
      },
      "length": {
        "value": 0.0,
        "unit": "days"
      }
    },
    "request": {
      "method": "PUT",
      "url": "Encounter/5ce6d13eb84846725ea458eb"
    }
  }, {
    "fullUrl": "https://madie.cms.gov/Encounter/5ce6d13eb84846725ea458ec",
    "resource": {
      "resourceType": "Encounter",
      "id": "5ce6d13eb84846725ea458ec",
      "meta": {
        "profile": [ "http://hl7.org/fhir/us/qicore/StructureDefinition/qicore-encounter" ]
      },
      "status": "finished",
      "class": {
        "system": "http://terminology.hl7.org/CodeSystem/v3-ActCode",
        "code": "IMP",
        "display": "inpatient encounter"
      },
      "type": [ {
        "coding": [ {
          "system": "http://snomed.info/sct",
          "code": "32485007"
        } ]
      } ],
      "subject": {
        "reference": "Patient/b3043789-f91a-42f6-848d-6bfd7df331fe"
      },
      "period": {
        "start": "2025-10-11T11:00:00+00:00",
        "end": "2025-10-14T11:30:00+00:00"
      },
      "length": {
        "value": 3.0,
        "unit": "days"
      },
      "diagnosis": [ {
        "condition": {
          "reference": "Condition/ischemic-stroke-6d69"
        },
        "use": {
          "coding": [ {
            "system": "http://snomed.info/sct",
            "code": "111297002",
            "display": "Nonparalytic stroke (disorder)"
          } ]
        },
        "rank": 1
      } ]
    },
    "request": {
      "method": "PUT",
      "url": "Encounter/5ce6d13eb84846725ea458ec"
    }
  }, {
    "fullUrl": "https://madie.cms.gov/Procedure/5e27158629969c0000f91cc9",
    "resource": {
      "resourceType": "Procedure",
      "id": "5e27158629969c0000f91cc9",
      "meta": {
        "profile": [ "http://hl7.org/fhir/us/qicore/StructureDefinition/qicore-procedure" ]
      },
      "extension": [ {
        "url": "http://hl7.org/fhir/us/qicore/StructureDefinition/qicore-recorded",
        "valueDateTime": "2025-11-19T09:35:00-04:00"
      } ],
      "status": "completed",
      "code": {
        "coding": [ {
          "system": "http://snomed.info/sct",
          "code": "307521008"
        } ]
      },
      "subject": {
        "reference": "Patient/b3043789-f91a-42f6-848d-6bfd7df331fe"
      },
      "performedPeriod": {
        "start": "2025-10-12T11:00:00+00:00",
        "end": "2025-10-14T11:30:00+00:00"
      }
    },
    "request": {
      "method": "PUT",
      "url": "Procedure/5e27158629969c0000f91cc9"
    }
  }, {
    "fullUrl": "https://madie.cms.gov/Condition/ischemic-stroke-6d69",
    "resource": {
      "resourceType": "Condition",
      "id": "ischemic-stroke-6d69",
      "meta": {
        "profile": [ "http://hl7.org/fhir/us/qicore/StructureDefinition/qicore-condition" ]
      },
      "clinicalStatus": {
        "coding": [ {
          "system": "http://terminology.hl7.org/CodeSystem/condition-clinical",
          "code": "active"
        } ]
      },
      "verificationStatus": {
        "coding": [ {
          "system": "http://terminology.hl7.org/CodeSystem/condition-ver-status",
          "code": "confirmed"
        } ]
      },
      "category": [ {
        "coding": [ {
          "system": "http://terminology.hl7.org/CodeSystem/condition-category",
          "code": "encounter-diagnosis",
          "display": "Encounter Diagnosis"
        } ]
      } ],
      "code": {
        "coding": [ {
          "system": "http://snomed.info/sct",
          "version": "2020-09",
          "code": "111297002",
          "display": "Nonparalytic stroke (disorder)",
          "userSelected": true
        } ]
      },
      "subject": {
        "reference": "Patient/b3043789-f91a-42f6-848d-6bfd7df331fe"
      },
      "recordedDate": "2025-08-13T08:00:00.000+00:00"
    },
    "request": {
      "method": "PUT",
      "url": "Condition/ischemic-stroke-6d69"
    }
  }, {
    "fullUrl": "https://madie.cms.gov/Coverage/1",
    "resource": {
      "resourceType": "Coverage",
      "id": "Coverage-1",
      "meta": {
        "profile": [ "http://hl7.org/fhir/us/qicore/StructureDefinition/qicore-coverage" ]
      },
      "status": "active",
      "beneficiary": {
        "reference": "Patient/b3043789-f91a-42f6-848d-6bfd7df331fe"
      },
      "payor": [ {
        "reference": "Organization/Org-123456"
      } ]
    },
    "request": {
      "method": "PUT",
      "url": "Coverage/Coverage-1"
    }
  }, {
    "fullUrl": "https://madie.cms.gov/Organization/123456",
    "resource": {
      "resourceType": "Organization",
      "id": "Org-123456",
      "meta": {
        "profile": [ "http://hl7.org/fhir/us/qicore/StructureDefinition/qicore-organization" ]
      },
      "identifier": [ {
        "use": "temp",
        "system": "urn:oid:2.16.840.1.113883.4.4",
        "value": "21-3259825"
      } ],
      "active": true,
      "type": [ {
        "coding": [ {
          "system": "http://terminology.hl7.org/CodeSystem/organization-type",
          "code": "pay",
          "display": "Payer"
        } ]
      } ],
      "name": "Blue Cross Blue Shield of Texas",
      "telecom": [ {
        "system": "phone",
        "value": "(+1) 972-766-6900"
      } ],
      "address": [ {
        "use": "billing",
        "type": "postal",
        "line": [ "P.O. Box 660044" ],
        "city": "Dallas",
        "state": "TX",
        "postalCode": "75266-0044",
        "country": "USA"
      } ]
    },
    "request": {
      "method": "PUT",
      "url": "Organization/Org-123456"
    }
  }, {
    "fullUrl": "https://madie.cms.gov/Practitioner/practitioner-123456",
    "resource": {
      "resourceType": "Practitioner",
      "id": "practitioner-123456",
      "identifier": [ {
        "system": "http://hl7.org/fhir/sid/us-npi",
        "value": "123456"
      } ],
      "name": [ {
        "family": "Evil",
        "prefix": [ "Dr" ]
      } ]
    },
    "request": {
      "method": "PUT",
      "url": "Practitioner/practitioner-123456"
    }
  }, {
    "fullUrl": "https://madie.cms.gov/MeasureReport/95b24c3e-290c-4319-9ece-0faa8c248028",
    "resource": {
      "resourceType": "MeasureReport",
      "id": "95b24c3e-290c-4319-9ece-0faa8c248028",
      "meta": {
        "profile": [ "http://hl7.org/fhir/us/cqfmeasures/StructureDefinition/test-case-cqfm" ]
      },
      "contained": [ {
        "resourceType": "Parameters",
        "id": "c18d4528-f0ef-45db-bf44-489468f144f6-parameters",
        "parameter": [ {
          "name": "subject",
          "valueString": "b3043789-f91a-42f6-848d-6bfd7df331fe"
        } ]
      } ],
      "extension": [ {
        "url": "http://hl7.org/fhir/us/cqfmeasures/StructureDefinition/cqfm-inputParameters",
        "valueReference": {
          "reference": "#c18d4528-f0ef-45db-bf44-489468f144f6-parameters"
        }
      }, {
        "url": "http://hl7.org/fhir/us/cqfmeasures/StructureDefinition/cqfm-testCaseDescription",
        "valueMarkdown": " Patient received tPA  one day after admission to inpatient hospitalization \n"
      } ],
      "modifierExtension": [ {
        "url": "http://hl7.org/fhir/us/cqfmeasures/StructureDefinition/cqfm-isTestCase",
        "valueBoolean": true
      } ],
      "status": "complete",
      "type": "individual",
      "measure": "https://madie.cms.gov/Measure/AntithromboticTherapyByEndofHospitalDay2FHIR",
      "period": {
        "start": "2025-01-01",
        "end": "2025-12-31"
      },
      "group": [ {
        "population": [ {
          "code": {
            "coding": [ {
              "system": "http://terminology.hl7.org/CodeSystem/measure-population",
              "code": "initial-population",
              "display": "Initial Population"
            } ]
          },
          "count": 1
        }, {
          "code": {
            "coding": [ {
              "system": "http://terminology.hl7.org/CodeSystem/measure-population",
              "code": "denominator",
              "display": "Denominator"
            } ]
          },
          "count": 1
        }, {
          "code": {
            "coding": [ {
              "system": "http://terminology.hl7.org/CodeSystem/measure-population",
              "code": "denominator-exclusion",
              "display": "Denominator Exclusion"
            } ]
          },
          "count": 1
        }, {
          "code": {
            "coding": [ {
              "system": "http://terminology.hl7.org/CodeSystem/measure-population",
              "code": "numerator",
              "display": "Numerator"
            } ]
          },
          "count": 0
        }, {
          "code": {
            "coding": [ {
              "system": "http://terminology.hl7.org/CodeSystem/measure-population",
              "code": "denominator-exception",
              "display": "Denominator Exception"
            } ]
          },
          "count": 0
        } ]
      } ],
      "evaluatedResource": [ {
        "reference": "Patient/b3043789-f91a-42f6-848d-6bfd7df331fe"
      }, {
        "reference": "Encounter/5ce6d13eb84846725ea458eb"
      }, {
        "reference": "Encounter/5ce6d13eb84846725ea458ec"
      }, {
        "reference": "Procedure/5e27158629969c0000f91cc9"
      }, {
        "reference": "Condition/ischemic-stroke-6d69"
      }, {
        "reference": "Coverage/Coverage-1"
      }, {
        "reference": "Organization/Org-123456"
      }, {
        "reference": "Practitioner/practitioner-123456"
      } ]
    },
    "request": {
      "method": "PUT",
      "url": "MeasureReport/95b24c3e-290c-4319-9ece-0faa8c248028"
    }
  } ]
}