{
  "resourceType": "Bundle",
  "id": "1684746434613131",
  "type": "transaction",
  "entry": [ {
    "fullUrl": "https://madie.cms.gov/Patient/fb38d345-4723-46b4-a269-8b4fd8982bc7",
    "resource": {
      "resourceType": "Patient",
      "id": "fb38d345-4723-46b4-a269-8b4fd8982bc7",
      "meta": {
        "profile": [ "http://hl7.org/fhir/us/qicore/StructureDefinition/qicore-patient" ]
      },
      "extension": [ {
        "url": "http://hl7.org/fhir/us/core/StructureDefinition/us-core-race",
        "extension": [ {
          "url": "ombCategory",
          "valueCoding": {
            "system": "urn:oid:2.16.840.1.113883.6.238",
            "code": "1002-5",
            "display": "American Indian or Alaska Native"
          }
        }, {
          "url": "text",
          "valueString": "American Indian or Alaska Native"
        } ]
      }, {
        "url": "http://hl7.org/fhir/us/core/StructureDefinition/us-core-ethnicity",
        "extension": [ {
          "url": "ombCategory",
          "valueCoding": {
            "system": "urn:oid:2.16.840.1.113883.6.238",
            "code": "2186-5",
            "display": "Not Hispanic or Latino"
          }
        }, {
          "url": "text",
          "valueString": "Not Hispanic or Latino"
        } ]
      } ],
      "identifier": [ {
        "type": {
          "coding": [ {
            "system": "http://terminology.hl7.org/CodeSystem/v2-0203",
            "code": "MR"
          } ]
        },
        "system": "https://bonnie-fhir.healthit.gov/",
        "value": "431385494631"
      } ],
      "name": [ {
        "family": "DENEXCEPPass",
        "given": [ "AllergyToAngIIRecptrMOA" ]
      } ],
      "gender": "male",
      "birthDate": "1968-06-14"
    },
    "request": {
      "method": "POST",
      "url": "Patient/fb38d345-4723-46b4-a269-8b4fd8982bc7"
    }
  }, {
    "fullUrl": "https://madie.cms.gov/Encounter/6849461665131313",
    "resource": {
      "resourceType": "Encounter",
      "id": "6849461665131313",
      "meta": {
        "profile": [ "http://hl7.org/fhir/us/qicore/StructureDefinition/qicore-encounter" ]
      },
      "status": "finished",
      "class": {
        "system": "http://terminology.hl7.org/CodeSystem/v3-ActCode",
        "code": "AMB",
        "display": "ambulatory"
      },
      "type": [ {
        "coding": [ {
          "system": "http://snomed.info/sct",
          "version": "http://snomed.info/sct/731000124108/version/20240301",
          "code": "18170008",
          "display": "Subsequent nursing facility visit (procedure)"
        } ]
      } ],
      "subject": {
        "reference": "Patient/fb38d345-4723-46b4-a269-8b4fd8982bc7"
      },
      "period": {
        "start": "2025-03-31T14:40:00.000+00:00",
        "end": "2025-03-31T14:40:00.000+00:00"
      }
    },
    "request": {
      "method": "POST",
      "url": "Encounter/6849461665131313"
    }
  }, {
    "fullUrl": "https://madie.cms.gov/Encounter/5163161133135",
    "resource": {
      "resourceType": "Encounter",
      "id": "5163161133135",
      "meta": {
        "profile": [ "http://hl7.org/fhir/us/qicore/StructureDefinition/qicore-encounter" ]
      },
      "status": "finished",
      "class": {
        "system": "http://terminology.hl7.org/CodeSystem/v3-ActCode",
        "code": "AMB",
        "display": "ambulatory"
      },
      "type": [ {
        "coding": [ {
          "system": "http://snomed.info/sct",
          "version": "http://snomed.info/sct/731000124108/version/20240301",
          "code": "185466002",
          "display": "Home visit for urgent condition (procedure)"
        } ]
      } ],
      "subject": {
        "reference": "Patient/fb38d345-4723-46b4-a269-8b4fd8982bc7"
      },
      "period": {
        "start": "2025-05-15T11:50:00.000+00:00",
        "end": "2025-05-15T11:50:00.000+00:00"
      }
    },
    "request": {
      "method": "POST",
      "url": "Encounter/5163161133135"
    }
  }, {
    "fullUrl": "https://madie.cms.gov/Condition/635416461316516",
    "resource": {
      "resourceType": "Condition",
      "id": "635416461316516",
      "meta": {
        "profile": [ "http://hl7.org/fhir/us/qicore/StructureDefinition/qicore-condition" ]
      },
      "clinicalStatus": {
        "coding": [ {
          "system": "http://terminology.hl7.org/CodeSystem/condition-clinical",
          "code": "active",
          "display": "active"
        } ]
      },
      "verificationStatus": {
        "coding": [ {
          "system": "http://terminology.hl7.org/CodeSystem/condition-ver-status",
          "code": "confirmed",
          "display": "Confirmed"
        } ]
      },
      "category": [ {
        "coding": [ {
          "system": "http://terminology.hl7.org/CodeSystem/condition-category",
          "code": "problem-list-item",
          "display": "Problem List Item"
        } ]
      } ],
      "code": {
        "coding": [ {
          "system": "http://snomed.info/sct",
          "version": "http://snomed.info/sct/731000124108/version/20240301",
          "code": "10091002",
          "display": "High output heart failure (disorder)"
        } ]
      },
      "subject": {
        "reference": "Patient/fb38d345-4723-46b4-a269-8b4fd8982bc7"
      },
      "onsetPeriod": {
        "start": "2024-05-17T10:00:00.000+00:00"
      }
    },
    "request": {
      "method": "POST",
      "url": "Condition/635416461316516"
    }
  }, {
    "fullUrl": "https://madie.cms.gov/Condition/635163116313131",
    "resource": {
      "resourceType": "Condition",
      "id": "635163116313131",
      "meta": {
        "profile": [ "http://hl7.org/fhir/us/qicore/StructureDefinition/qicore-condition" ]
      },
      "clinicalStatus": {
        "coding": [ {
          "system": "http://terminology.hl7.org/CodeSystem/condition-clinical",
          "code": "active",
          "display": "Active"
        } ]
      },
      "verificationStatus": {
        "coding": [ {
          "system": "http://terminology.hl7.org/CodeSystem/condition-ver-status",
          "code": "confirmed",
          "display": "Confirmed"
        } ]
      },
      "category": [ {
        "coding": [ {
          "system": "http://terminology.hl7.org/CodeSystem/condition-category",
          "code": "problem-list-item",
          "display": "Problem List Item"
        } ]
      } ],
      "code": {
        "coding": [ {
          "system": "http://snomed.info/sct",
          "version": "http://snomed.info/sct/731000124108/version/20240301",
          "code": "991000124109",
          "display": "Severe left ventricular systolic dysfunction (disorder)"
        } ]
      },
      "subject": {
        "reference": "Patient/fb38d345-4723-46b4-a269-8b4fd8982bc7"
      },
      "onsetPeriod": {
        "start": "2025-03-25T16:00:00.000+00:00",
        "end": "2025-03-30T16:00:00.000+00:00"
      }
    },
    "request": {
      "method": "POST",
      "url": "Condition/635163116313131"
    }
  }, {
    "fullUrl": "https://madie.cms.gov/AllergyIntolerance/453516461313351",
    "resource": {
      "resourceType": "AllergyIntolerance",
      "id": "453516461313351",
      "meta": {
        "profile": [ "http://hl7.org/fhir/us/qicore/StructureDefinition/qicore-allergyintolerance" ]
      },
      "clinicalStatus": {
        "coding": [ {
          "system": "http://terminology.hl7.org/CodeSystem/allergyintolerance-clinical",
          "code": "active",
          "display": "Active"
        } ]
      },
      "verificationStatus": {
        "coding": [ {
          "system": "http://terminology.hl7.org/CodeSystem/allergyintolerance-verification",
          "code": "confirmed",
          "display": "Confirmed"
        } ]
      },
      "type": "allergy",
      "category": [ "medication" ],
      "criticality": "high",
      "code": {
        "coding": [ {
          "system": "http://snomed.info/sct",
          "version": "http://snomed.info/sct/731000124108/version/20240301",
          "code": "372913009",
          "display": "Substance with angiotensin II receptor antagonist mechanism of action (substance)"
        } ]
      },
      "patient": {
        "reference": "Patient/fb38d345-4723-46b4-a269-8b4fd8982bc7"
      },
      "onsetDateTime": "2004",
      "recordedDate": "2024-09-25T16:00:00.000+00:00"
    },
    "request": {
      "method": "POST",
      "url": "AllergyIntolerance/453516461313351"
    }
  }, {
    "fullUrl": "https://madie.cms.gov/MeasureReport/453a1881-e1a0-4b19-9261-4db4ffce0c7e",
    "resource": {
      "resourceType": "MeasureReport",
      "id": "453a1881-e1a0-4b19-9261-4db4ffce0c7e",
      "meta": {
        "profile": [ "http://hl7.org/fhir/us/cqfmeasures/StructureDefinition/test-case-cqfm" ]
      },
      "contained": [ {
        "resourceType": "Parameters",
        "id": "9b84fba4-a3f2-4cf1-8aff-0dba68dc418e-parameters",
        "parameter": [ {
          "name": "subject",
          "valueString": "fb38d345-4723-46b4-a269-8b4fd8982bc7"
        } ]
      } ],
      "extension": [ {
        "url": "http://hl7.org/fhir/us/cqfmeasures/StructureDefinition/cqfm-inputParameters",
        "valueReference": {
          "reference": "#9b84fba4-a3f2-4cf1-8aff-0dba68dc418e-parameters"
        }
      }, {
        "url": "http://hl7.org/fhir/us/cqfmeasures/StructureDefinition/cqfm-testCaseDescription",
        "valueMarkdown": "Patient has 2 ambulatory encounters, HF diagnosis and LVSD and meets denominator exception with confirmed angiotensin receptor allergy"
      } ],
      "modifierExtension": [ {
        "url": "http://hl7.org/fhir/us/cqfmeasures/StructureDefinition/cqfm-isTestCase",
        "valueBoolean": true
      } ],
      "status": "complete",
      "type": "individual",
      "measure": "https://madie.cms.gov/Measure/HFACEIorARBorARNIforLVSDFHIR",
      "period": {
        "start": "2025-01-01",
        "end": "2025-12-31"
      },
      "group": [ {
        "population": [ {
          "code": {
            "coding": [ {
              "system": "http://terminology.hl7.org/CodeSystem/measure-population",
              "code": "initial-population",
              "display": "Initial Population"
            } ]
          },
          "count": 1
        }, {
          "code": {
            "coding": [ {
              "system": "http://terminology.hl7.org/CodeSystem/measure-population",
              "code": "denominator",
              "display": "Denominator"
            } ]
          },
          "count": 1
        }, {
          "code": {
            "coding": [ {
              "system": "http://terminology.hl7.org/CodeSystem/measure-population",
              "code": "denominator-exclusion",
              "display": "Denominator Exclusion"
            } ]
          },
          "count": 0
        }, {
          "code": {
            "coding": [ {
              "system": "http://terminology.hl7.org/CodeSystem/measure-population",
              "code": "numerator",
              "display": "Numerator"
            } ]
          },
          "count": 0
        }, {
          "code": {
            "coding": [ {
              "system": "http://terminology.hl7.org/CodeSystem/measure-population",
              "code": "denominator-exception",
              "display": "Denominator Exception"
            } ]
          },
          "count": 1
        } ]
      } ],
      "evaluatedResource": [ {
        "reference": "https://madie.cms.gov/Patient/fb38d345-4723-46b4-a269-8b4fd8982bc7"
      }, {
        "reference": "https://madie.cms.gov/Encounter/6849461665131313"
      }, {
        "reference": "https://madie.cms.gov/Encounter/5163161133135"
      }, {
        "reference": "https://madie.cms.gov/Condition/635416461316516"
      }, {
        "reference": "https://madie.cms.gov/Condition/635163116313131"
      }, {
        "reference": "https://madie.cms.gov/AllergyIntolerance/453516461313351"
      } ]
    },
    "request": {
      "method": "POST",
      "url": "MeasureReport/453a1881-e1a0-4b19-9261-4db4ffce0c7e"
    }
  } ]
}