{"resourceType":"Bundle","id":"tests-1dbcccc2-895d-46a7-b28a-bf936fc7978a-bundle","type":"transaction","entry":[{"fullUrl":"https://madie.cms.gov/Patient/e5cdd538-9bae-4420-8e34-b3f4bb8a42ac","resource":{"resourceType":"Patient","id":"e5cdd538-9bae-4420-8e34-b3f4bb8a42ac","meta":{"profile":["http://hl7.org/fhir/us/qicore/StructureDefinition/qicore-patient"]},"text":{"status":"generated","div":"<div xmlns=\"http://www.w3.org/1999/xhtml\"><div class=\"hapiHeaderText\">ProcAtrialAblEncStartRelePer <b>DENOMFAIL </b></div><table class=\"hapiPropertyTable\"><tbody><tr><td>Identifier</td><td>1ebc7a8ec0c65913b7018969c7b50ead</td></tr><tr><td>Date of birth</td><td><span>01 December 1960</span></td></tr></tbody></table></div>"},"extension":[{"url":"http://hl7.org/fhir/us/core/StructureDefinition/us-core-race","extension":[{"url":"ombCategory","valueCoding":{"system":"urn:oid:2.16.840.1.113883.6.238","code":"1002-5","display":"American Indian or Alaska Native","userSelected":true}},{"url":"text","valueString":"American Indian or Alaska Native"}]},{"url":"http://hl7.org/fhir/us/core/StructureDefinition/us-core-ethnicity","extension":[{"url":"ombCategory","valueCoding":{"system":"urn:oid:2.16.840.1.113883.6.238","code":"2135-2","display":"Hispanic or Latino","userSelected":true}},{"url":"text","valueString":"Hispanic or Latino"}]}],"identifier":[{"type":{"coding":[{"system":"http://terminology.hl7.org/CodeSystem/v2-0203","code":"MR"}]},"system":"https://bonnie-fhir.healthit.gov/","value":"633c9d030968f8012250fc79"}],"active":true,"name":[{"use":"usual","family":"DENOMFail","given":["ProcAtrialAblEncStartRelePer"]}],"gender":"male","birthDate":"1960-12-01"},"request":{"method":"PUT","url":"Patient/e5cdd538-9bae-4420-8e34-b3f4bb8a42ac"}},{"fullUrl":"https://madie.cms.gov/Encounter/32fa431b-209a-4378-8d48-f65fd6fe8ae7","resource":{"resourceType":"Encounter","id":"32fa431b-209a-4378-8d48-f65fd6fe8ae7","meta":{"profile":["http://hl7.org/fhir/us/qicore/StructureDefinition/qicore-encounter"]},"status":"finished","class":{"system":"http://terminology.hl7.org/CodeSystem/v3-ActCode","code":"IMP","display":"inpatient encounter"},"type":[{"coding":[{"system":"http://snomed.info/sct","code":"32485007"}]}],"subject":{"reference":"Patient/e5cdd538-9bae-4420-8e34-b3f4bb8a42ac"},"period":{"start":"2025-02-08T08:00:00.000Z","end":"2025-02-10T08:15:00.000Z"},"length":{"value":2,"unit":"days"},"diagnosis":[{"condition":{"reference":"Condition/635ce69a-93d9-4bae-944b-1a46c178ade0"},"use":{"coding":[{"system":"http://terminology.hl7.org/CodeSystem/diagnosis-role","code":"billing","display":"Billing"}]},"rank":1}]},"request":{"method":"PUT","url":"Encounter/32fa431b-209a-4378-8d48-f65fd6fe8ae7"}},{"fullUrl":"https://madie.cms.gov/Coverage/35976375-4f6b-43ae-b0b9-f77caea24d6a","resource":{"resourceType":"Coverage","id":"35976375-4f6b-43ae-b0b9-f77caea24d6a","status":"active","beneficiary":{"reference":"Patient/e5cdd538-9bae-4420-8e34-b3f4bb8a42ac"},"period":{"start":"1960-12-01T08:00:00.000Z"},"payor":[{"reference":"Organization/26111c91-b0e2-476c-a20b-e3f39799f8f5"}]},"request":{"method":"PUT","url":"Coverage/35976375-4f6b-43ae-b0b9-f77caea24d6a"}},{"fullUrl":"https://madie.cms.gov/Procedure/f7db9d97-64ff-4f56-969d-44d72da1e9cf","resource":{"resourceType":"Procedure","id":"f7db9d97-64ff-4f56-969d-44d72da1e9cf","meta":{"profile":["http://hl7.org/fhir/us/qicore/StructureDefinition/qicore-procedure"]},"extension":[{"url":"http://hl7.org/fhir/us/qicore/StructureDefinition/qicore-recorded","valueDateTime":"2025-11-19T09:35:00-04:00"}],"status":"completed","code":{"coding":[{"system":"http://www.cms.gov/Medicare/Coding/ICD10","code":"02560ZZ"},{"system":"http://snomed.info/sct","code":"175095005"}]},"subject":{"reference":"Patient/e5cdd538-9bae-4420-8e34-b3f4bb8a42ac"},"performedPeriod":{"start":"2025-02-08T08:00:00.000Z","end":"2025-02-10T08:15:00.000Z"}},"request":{"method":"PUT","url":"Procedure/f7db9d97-64ff-4f56-969d-44d72da1e9cf"}},{"fullUrl":"https://madie.cms.gov/Condition/635ce69a-93d9-4bae-944b-1a46c178ade0","resource":{"resourceType":"Condition","id":"635ce69a-93d9-4bae-944b-1a46c178ade0","meta":{"profile":["http://hl7.org/fhir/us/qicore/StructureDefinition/qicore-condition"]},"clinicalStatus":{"coding":[{"system":"http://terminology.hl7.org/CodeSystem/condition-clinical","code":"active"}]},"verificationStatus":{"coding":[{"system":"http://terminology.hl7.org/CodeSystem/condition-ver-status","code":"confirmed"}]},"category":[{"coding":[{"system":"http://terminology.hl7.org/CodeSystem/condition-category","code":"encounter-diagnosis","display":"Encounter Diagnosis"}]}],"code":{"coding":[{"system":"http://snomed.info/sct","version":"2021-09","code":"111297002","display":"Nonparalytic stroke (disorder)","userSelected":true}]},"subject":{"reference":"Patient/e5cdd538-9bae-4420-8e34-b3f4bb8a42ac"},"recordedDate":"2025-10-13T08:00:00.000+00:00"},"request":{"method":"PUT","url":"Condition/635ce69a-93d9-4bae-944b-1a46c178ade0"}},{"fullUrl":"https://madie.cms.gov/Organization/4748aae4-4d4f-43df-83f5-aa7add01cbe7","resource":{"resourceType":"Organization","id":"26111c91-b0e2-476c-a20b-e3f39799f8f5","meta":{"profile":["http://hl7.org/fhir/us/qicore/StructureDefinition/qicore-organization"]},"identifier":[{"use":"temp","system":"urn:oid:2.16.840.1.113883.4.4","value":"21-3259825"}],"active":true,"type":[{"coding":[{"system":"http://terminology.hl7.org/CodeSystem/organization-type","code":"pay","display":"Payer"}]}],"name":"Blue Cross Blue Shield of Texas","telecom":[{"system":"phone","value":"(+1) 972-766-6900"}],"address":[{"use":"billing","type":"postal","line":["P.O. Box 660044"],"city":"Dallas","state":"TX","postalCode":"75266-0044","country":"USA"}]},"request":{"method":"PUT","url":"Organization/26111c91-b0e2-476c-a20b-e3f39799f8f5"}},{"fullUrl":"https://madie.cms.gov/Practitioner/fcf39155-1728-45d5-b723-833d6b892ea7","resource":{"resourceType":"Practitioner","id":"fcf39155-1728-45d5-b723-833d6b892ea7","identifier":[{"system":"http://hl7.org/fhir/sid/us-npi","value":"123456"}],"name":[{"family":"Evil","prefix":["Dr"]}]},"request":{"method":"PUT","url":"Practitioner/fcf39155-1728-45d5-b723-833d6b892ea7"}},{"fullUrl":"https://madie.cms.gov/MeasureReport/ab671d32-04d7-477d-ab9c-59bea0edfd42","resource":{"resourceType":"MeasureReport","id":"ab671d32-04d7-477d-ab9c-59bea0edfd42","meta":{"profile":["http://hl7.org/fhir/us/cqfmeasures/StructureDefinition/test-case-cqfm"]},"contained":[{"resourceType":"Parameters","id":"c1b215ba-575b-4e1c-99cc-c6d1574349fc-parameters","parameter":[{"name":"subject","valueString":"e5cdd538-9bae-4420-8e34-b3f4bb8a42ac"}]}],"extension":[{"url":"http://hl7.org/fhir/us/cqfmeasures/StructureDefinition/cqfm-inputParameters","valueReference":{"reference":"#c1b215ba-575b-4e1c-99cc-c6d1574349fc-parameters"}},{"url":"http://hl7.org/fhir/us/cqfmeasures/StructureDefinition/cqfm-testCaseDescription","valueMarkdown":"Procedure performed Atrial Ablation starts at the start of the encounter using our relevant period\n"}],"modifierExtension":[{"url":"http://hl7.org/fhir/us/cqfmeasures/StructureDefinition/cqfm-isTestCase","valueBoolean":true}],"status":"complete","type":"individual","measure":"https://madie.cms.gov/Measure/AnticoagulationTherapyforAtrialFibrillationFlutterFHIR","period":{"start":"2025-01-01","end":"2025-12-31"},"group":[{"population":[{"code":{"coding":[{"system":"http://terminology.hl7.org/CodeSystem/measure-population","code":"initial-population","display":"Initial Population"}]},"count":1},{"code":{"coding":[{"system":"http://terminology.hl7.org/CodeSystem/measure-population","code":"denominator","display":"Denominator"}]},"count":0},{"code":{"coding":[{"system":"http://terminology.hl7.org/CodeSystem/measure-population","code":"denominator-exclusion","display":"Denominator Exclusion"}]},"count":0},{"code":{"coding":[{"system":"http://terminology.hl7.org/CodeSystem/measure-population","code":"numerator","display":"Numerator"}]},"count":0},{"code":{"coding":[{"system":"http://terminology.hl7.org/CodeSystem/measure-population","code":"denominator-exception","display":"Denominator Exception"}]},"count":0}]}]},"request":{"method":"PUT","url":"MeasureReport/ab671d32-04d7-477d-ab9c-59bea0edfd42"}}]}