{"resourceType":"Bundle","id":"tests-5dd3cb00-eb9b-42ba-9af5-9cafa1475528-bundle","type":"transaction","entry":[{"fullUrl":"https://madie.cms.gov/Patient/5dd3cb00-eb9b-42ba-9af5-9cafa1475528","resource":{"resourceType":"Patient","id":"5dd3cb00-eb9b-42ba-9af5-9cafa1475528","meta":{"profile":["http://hl7.org/fhir/us/qicore/StructureDefinition/qicore-patient"]},"text":{"status":"generated","div":"<div xmlns=\"http://www.w3.org/1999/xhtml\"><div class=\"hapiHeaderText\">AtrialAblStartTM=EncStartTM <b>DENOMFAIL </b></div><table class=\"hapiPropertyTable\"><tbody><tr><td>Identifier</td><td>17e7285219c0bb5f087df79f6dd558b0</td></tr><tr><td>Date of birth</td><td><span>01 December 1960</span></td></tr></tbody></table></div>"},"extension":[{"url":"http://hl7.org/fhir/us/core/StructureDefinition/us-core-race","extension":[{"url":"ombCategory","valueCoding":{"system":"urn:oid:2.16.840.1.113883.6.238","code":"1002-5","display":"American Indian or Alaska Native","userSelected":true}},{"url":"text","valueString":"American Indian or Alaska Native"}]},{"url":"http://hl7.org/fhir/us/core/StructureDefinition/us-core-ethnicity","extension":[{"url":"ombCategory","valueCoding":{"system":"urn:oid:2.16.840.1.113883.6.238","code":"2135-2","display":"Hispanic or Latino","userSelected":true}},{"url":"text","valueString":"Hispanic or Latino"}]}],"identifier":[{"type":{"coding":[{"system":"http://terminology.hl7.org/CodeSystem/v2-0203","code":"MR"}]},"system":"https://bonnie-fhir.healthit.gov/","value":"633c9d030968f8012250fc7a"}],"active":true,"name":[{"use":"usual","family":"DENOMFail","given":["AtrialAblStartTM=EncStartTM"]}],"gender":"male","birthDate":"1960-12-01"},"request":{"method":"PUT","url":"Patient/5dd3cb00-eb9b-42ba-9af5-9cafa1475528"}},{"fullUrl":"https://madie.cms.gov/Encounter/5c953f96b848462de0ae4099","resource":{"resourceType":"Encounter","id":"5c953f96b848462de0ae4099","meta":{"profile":["http://hl7.org/fhir/us/qicore/StructureDefinition/qicore-encounter"]},"status":"finished","class":{"system":"http://terminology.hl7.org/CodeSystem/v3-ActCode","code":"IMP","display":"inpatient encounter"},"type":[{"coding":[{"system":"http://snomed.info/sct","code":"32485007"}]}],"subject":{"reference":"Patient/5dd3cb00-eb9b-42ba-9af5-9cafa1475528"},"period":{"start":"2025-02-08T08:00:00.000Z","end":"2025-02-10T08:15:00.000Z"},"length":{"value":2.0,"unit":"days"},"diagnosis":[{"condition":{"reference":"Condition/ischemic-stroke-1975"},"rank":1}]},"request":{"method":"PUT","url":"Encounter/5c953f96b848462de0ae4099"}},{"fullUrl":"https://madie.cms.gov/Coverage/5f2c53ca1c76ba5c9960570e","resource":{"resourceType":"Coverage","id":"5f2c53ca1c76ba5c9960570e","status":"active","beneficiary":{"reference":"Patient/5dd3cb00-eb9b-42ba-9af5-9cafa1475528"},"period":{"start":"1960-12-01T08:00:00.000Z"},"payor":[{"reference":"Organization/Org-123456"}]},"request":{"method":"PUT","url":"Coverage/5f2c53ca1c76ba5c9960570e"}},{"fullUrl":"https://madie.cms.gov/Procedure/5c953f96b848462de0ae409b","resource":{"resourceType":"Procedure","id":"5c953f96b848462de0ae409b","meta":{"profile":["http://hl7.org/fhir/us/qicore/StructureDefinition/qicore-procedure"]},"extension":[{"url":"http://hl7.org/fhir/us/qicore/StructureDefinition/qicore-recorded","valueDateTime":"2025-11-19T09:35:00-04:00"}],"status":"completed","code":{"coding":[{"system":"http://www.cms.gov/Medicare/Coding/ICD10","code":"02560ZZ"},{"system":"http://snomed.info/sct","code":"175095005"}]},"subject":{"reference":"Patient/5dd3cb00-eb9b-42ba-9af5-9cafa1475528"},"performedPeriod":{"start":"2025-02-08T08:00:00.000Z"}},"request":{"method":"PUT","url":"Procedure/5c953f96b848462de0ae409b"}},{"fullUrl":"https://madie.cms.gov/Condition/ischemic-stroke-1975","resource":{"resourceType":"Condition","id":"ischemic-stroke-1975","meta":{"profile":["http://hl7.org/fhir/us/qicore/StructureDefinition/qicore-condition"]},"clinicalStatus":{"coding":[{"system":"http://terminology.hl7.org/CodeSystem/condition-clinical","code":"active"}]},"verificationStatus":{"coding":[{"system":"http://terminology.hl7.org/CodeSystem/condition-ver-status","code":"confirmed"}]},"category":[{"coding":[{"system":"http://terminology.hl7.org/CodeSystem/condition-category","code":"encounter-diagnosis","display":"Encounter Diagnosis"}]}],"code":{"coding":[{"system":"http://snomed.info/sct","version":"2021-09","code":"111297002","display":"Nonparalytic stroke (disorder)","userSelected":true}]},"subject":{"reference":"Patient/5dd3cb00-eb9b-42ba-9af5-9cafa1475528"},"recordedDate":"2025-10-13T08:00:00.000+00:00"},"request":{"method":"PUT","url":"Condition/ischemic-stroke-1975"}},{"fullUrl":"https://madie.cms.gov/Organization/123456","resource":{"resourceType":"Organization","id":"Org-123456","meta":{"profile":["http://hl7.org/fhir/us/qicore/StructureDefinition/qicore-organization"]},"identifier":[{"use":"temp","system":"urn:oid:2.16.840.1.113883.4.4","value":"21-3259825"}],"active":true,"type":[{"coding":[{"system":"http://terminology.hl7.org/CodeSystem/organization-type","code":"pay","display":"Payer"}]}],"name":"Blue Cross Blue Shield of Texas","telecom":[{"system":"phone","value":"(+1) 972-766-6900"}],"address":[{"use":"billing","type":"postal","line":["P.O. Box 660044"],"city":"Dallas","state":"TX","postalCode":"75266-0044","country":"USA"}]},"request":{"method":"PUT","url":"Organization/Org-123456"}},{"fullUrl":"https://madie.cms.gov/Practitioner/practitioner-123456","resource":{"resourceType":"Practitioner","id":"practitioner-123456","identifier":[{"system":"http://hl7.org/fhir/sid/us-npi","value":"123456"}],"name":[{"family":"Evil","prefix":["Dr"]}]},"request":{"method":"PUT","url":"Practitioner/practitioner-123456"}},{"fullUrl":"https://madie.cms.gov/MeasureReport/2f1c35d0-33db-48d3-bd01-19781e3bbdc9","resource":{"resourceType":"MeasureReport","id":"2f1c35d0-33db-48d3-bd01-19781e3bbdc9","meta":{"profile":["http://hl7.org/fhir/us/cqfmeasures/StructureDefinition/test-case-cqfm"]},"contained":[{"resourceType":"Parameters","id":"91f1ba55-ccfe-4be8-b502-eb7549412d4b-parameters","parameter":[{"name":"subject","valueString":"5dd3cb00-eb9b-42ba-9af5-9cafa1475528"}]}],"extension":[{"url":"http://hl7.org/fhir/us/cqfmeasures/StructureDefinition/cqfm-inputParameters","valueReference":{"reference":"#91f1ba55-ccfe-4be8-b502-eb7549412d4b-parameters"}},{"url":"http://hl7.org/fhir/us/cqfmeasures/StructureDefinition/cqfm-testCaseDescription","valueMarkdown":"Procedure performed Atrial Ablation starts at same time as OccA start time\n"}],"modifierExtension":[{"url":"http://hl7.org/fhir/us/cqfmeasures/StructureDefinition/cqfm-isTestCase","valueBoolean":true}],"status":"complete","type":"individual","measure":"https://madie.cms.gov/Measure/AnticoagulationTherapyforAtrialFibrillationFlutterFHIR","period":{"start":"2025-01-01","end":"2025-12-31"},"group":[{"population":[{"code":{"coding":[{"system":"http://terminology.hl7.org/CodeSystem/measure-population","code":"initial-population","display":"Initial Population"}]},"count":1},{"code":{"coding":[{"system":"http://terminology.hl7.org/CodeSystem/measure-population","code":"denominator","display":"Denominator"}]},"count":0},{"code":{"coding":[{"system":"http://terminology.hl7.org/CodeSystem/measure-population","code":"denominator-exclusion","display":"Denominator Exclusion"}]},"count":0},{"code":{"coding":[{"system":"http://terminology.hl7.org/CodeSystem/measure-population","code":"numerator","display":"Numerator"}]},"count":0},{"code":{"coding":[{"system":"http://terminology.hl7.org/CodeSystem/measure-population","code":"denominator-exception","display":"Denominator Exception"}]},"count":0}]}],"evaluatedResource":[{"reference":"Patient/5dd3cb00-eb9b-42ba-9af5-9cafa1475528"},{"reference":"Encounter/5c953f96b848462de0ae4099"},{"reference":"Coverage/5f2c53ca1c76ba5c9960570e"},{"reference":"Procedure/5c953f96b848462de0ae409b"},{"reference":"Condition/ischemic-stroke-1975"},{"reference":"Organization/Org-123456"},{"reference":"Practitioner/practitioner-123456"}]},"request":{"method":"PUT","url":"MeasureReport/2f1c35d0-33db-48d3-bd01-19781e3bbdc9"}}]}