{"resourceType":"Bundle","id":"tests-f0de258a-3358-4f1d-a91d-e1c57a2cb61a-bundle","type":"transaction","entry":[{"fullUrl":"https://madie.cms.gov/Patient/f0de258a-3358-4f1d-a91d-e1c57a2cb61a","resource":{"resourceType":"Patient","id":"f0de258a-3358-4f1d-a91d-e1c57a2cb61a","meta":{"profile":["http://hl7.org/fhir/us/qicore/StructureDefinition/qicore-patient"]},"text":{"status":"generated","div":"<div xmlns=\"http://www.w3.org/1999/xhtml\"><div class=\"hapiHeaderText\">Dx=Afib/flutterStart=EncEnd <b>DENOMPASS </b></div><table class=\"hapiPropertyTable\"><tbody><tr><td>Identifier</td><td>eea63111353acebe4dc924bd86a7bec7</td></tr><tr><td>Date of birth</td><td><span>01 December 1960</span></td></tr></tbody></table></div>"},"extension":[{"url":"http://hl7.org/fhir/us/core/StructureDefinition/us-core-race","extension":[{"url":"ombCategory","valueCoding":{"system":"urn:oid:2.16.840.1.113883.6.238","code":"1002-5","display":"American Indian or Alaska Native","userSelected":true}},{"url":"text","valueString":"American Indian or Alaska Native"}]},{"url":"http://hl7.org/fhir/us/core/StructureDefinition/us-core-ethnicity","extension":[{"url":"ombCategory","valueCoding":{"system":"urn:oid:2.16.840.1.113883.6.238","code":"2135-2","display":"Hispanic or Latino","userSelected":true}},{"url":"text","valueString":"Hispanic or Latino"}]}],"identifier":[{"type":{"coding":[{"system":"http://terminology.hl7.org/CodeSystem/v2-0203","code":"MR"}]},"system":"https://bonnie-fhir.healthit.gov/","value":"633c9d030968f8012250fc99"}],"active":true,"name":[{"use":"usual","family":"DENOMPass","given":["Dx=Afib/flutterStart=EncEnd "]}],"gender":"male","birthDate":"1960-12-01"},"request":{"method":"PUT","url":"Patient/f0de258a-3358-4f1d-a91d-e1c57a2cb61a"}},{"fullUrl":"https://madie.cms.gov/Condition/5c953f97b848462de0ae40ea","resource":{"resourceType":"Condition","id":"33d18c86-a436-4928-9d39-4fa22890972f","meta":{"profile":["http://hl7.org/fhir/us/qicore/StructureDefinition/qicore-condition"]},"clinicalStatus":{"coding":[{"system":"http://terminology.hl7.org/CodeSystem/condition-clinical","code":"active"}]},"verificationStatus":{"coding":[{"system":"http://terminology.hl7.org/CodeSystem/condition-ver-status","code":"confirmed"}]},"category":[{"coding":[{"system":"http://terminology.hl7.org/CodeSystem/condition-category","code":"encounter-diagnosis","display":"Encounter Diagnosis"}]}],"code":{"coding":[{"system":"http://snomed.info/sct","code":"195080001"},{"system":"http://hl7.org/fhir/sid/icd-9-cm","code":"427.31"},{"system":"http://hl7.org/fhir/sid/icd-10-cm","code":"I48.0"}]},"subject":{"reference":"Patient/f0de258a-3358-4f1d-a91d-e1c57a2cb61a"},"onsetDateTime":"2025-02-10T08:15:00.000Z"},"request":{"method":"PUT","url":"Condition/33d18c86-a436-4928-9d39-4fa22890972f"}},{"fullUrl":"https://madie.cms.gov/Encounter/5c953f97b848462de0ae40eb","resource":{"resourceType":"Encounter","id":"bc2d3d60-1cb0-48ff-a013-a0b6f65a2bbd","meta":{"profile":["http://hl7.org/fhir/us/qicore/StructureDefinition/qicore-encounter"]},"status":"finished","class":{"system":"http://terminology.hl7.org/CodeSystem/v3-ActCode","code":"IMP","display":"inpatient encounter"},"type":[{"coding":[{"system":"http://snomed.info/sct","code":"183452005"}]}],"subject":{"reference":"Patient/f0de258a-3358-4f1d-a91d-e1c57a2cb61a"},"period":{"start":"2025-02-08T08:00:00.000Z","end":"2025-02-10T08:15:00.000Z"},"length":{"value":2,"unit":"days"},"diagnosis":[{"condition":{"reference":"Condition/ischemic-stroke-197b"},"use":{"coding":[{"system":"http://terminology.hl7.org/CodeSystem/diagnosis-role","code":"billing","display":"Billing"}]},"rank":1}]},"request":{"method":"PUT","url":"Encounter/bc2d3d60-1cb0-48ff-a013-a0b6f65a2bbd"}},{"fullUrl":"https://madie.cms.gov/Coverage/5f2c53ce1c76ba5c9960576b","resource":{"resourceType":"Coverage","id":"06edbfea-aa7a-46e1-8516-d02eb3bb2358","status":"active","beneficiary":{"reference":"Patient/f0de258a-3358-4f1d-a91d-e1c57a2cb61a"},"period":{"start":"1960-12-01T08:00:00.000Z"},"payor":[{"reference":"Organization/5224cb12-ed64-4d6d-ab28-40a64f0800f1"}]},"request":{"method":"PUT","url":"Coverage/06edbfea-aa7a-46e1-8516-d02eb3bb2358"}},{"fullUrl":"https://madie.cms.gov/Condition/ischemic-stroke-197b","resource":{"resourceType":"Condition","id":"fa85e1a1-8c9c-4f6a-bb04-b8902ffce078","meta":{"profile":["http://hl7.org/fhir/us/qicore/StructureDefinition/qicore-condition"]},"clinicalStatus":{"coding":[{"system":"http://terminology.hl7.org/CodeSystem/condition-clinical","code":"active"}]},"verificationStatus":{"coding":[{"system":"http://terminology.hl7.org/CodeSystem/condition-ver-status","code":"confirmed"}]},"category":[{"coding":[{"system":"http://terminology.hl7.org/CodeSystem/condition-category","code":"encounter-diagnosis","display":"Encounter Diagnosis"}]}],"code":{"coding":[{"system":"http://snomed.info/sct","version":"2021-09","code":"111297002","display":"Nonparalytic stroke (disorder)","userSelected":true}]},"subject":{"reference":"Patient/f0de258a-3358-4f1d-a91d-e1c57a2cb61a"},"recordedDate":"2025-10-13T08:00:00.000+00:00"},"request":{"method":"PUT","url":"Condition/fa85e1a1-8c9c-4f6a-bb04-b8902ffce078"}},{"fullUrl":"https://madie.cms.gov/Organization/123456","resource":{"resourceType":"Organization","id":"5224cb12-ed64-4d6d-ab28-40a64f0800f1","meta":{"profile":["http://hl7.org/fhir/us/qicore/StructureDefinition/qicore-organization"]},"identifier":[{"use":"temp","system":"urn:oid:2.16.840.1.113883.4.4","value":"21-3259825"}],"active":true,"type":[{"coding":[{"system":"http://terminology.hl7.org/CodeSystem/organization-type","code":"pay","display":"Payer"}]}],"name":"Blue Cross Blue Shield of Texas","telecom":[{"system":"phone","value":"(+1) 972-766-6900"}],"address":[{"use":"billing","type":"postal","line":["P.O. Box 660044"],"city":"Dallas","state":"TX","postalCode":"75266-0044","country":"USA"}]},"request":{"method":"PUT","url":"Organization/5224cb12-ed64-4d6d-ab28-40a64f0800f1"}},{"fullUrl":"https://madie.cms.gov/Practitioner/practitioner-123456","resource":{"resourceType":"Practitioner","id":"bdc3e32e-768d-4869-acab-cf88a911cc57","identifier":[{"system":"http://hl7.org/fhir/sid/us-npi","value":"123456"}],"name":[{"family":"Evil","prefix":["Dr"]}]},"request":{"method":"PUT","url":"Practitioner/bdc3e32e-768d-4869-acab-cf88a911cc57"}},{"fullUrl":"https://madie.cms.gov/MeasureReport/8b1d9e41-37c9-4c27-a6af-5f691330c261","resource":{"resourceType":"MeasureReport","id":"8b1d9e41-37c9-4c27-a6af-5f691330c261","meta":{"profile":["http://hl7.org/fhir/us/cqfmeasures/StructureDefinition/test-case-cqfm"]},"contained":[{"resourceType":"Parameters","id":"46fc95cb-d1ee-44b5-b64e-007d3a06c6da-parameters","parameter":[{"name":"subject","valueString":"f0de258a-3358-4f1d-a91d-e1c57a2cb61a"}]}],"extension":[{"url":"http://hl7.org/fhir/us/cqfmeasures/StructureDefinition/cqfm-inputParameters","valueReference":{"reference":"#46fc95cb-d1ee-44b5-b64e-007d3a06c6da-parameters"}},{"url":"http://hl7.org/fhir/us/cqfmeasures/StructureDefinition/cqfm-testCaseDescription","valueMarkdown":"with active flutter and abatement time removed"}],"modifierExtension":[{"url":"http://hl7.org/fhir/us/cqfmeasures/StructureDefinition/cqfm-isTestCase","valueBoolean":true}],"status":"complete","type":"individual","measure":"https://madie.cms.gov/Measure/AnticoagulationTherapyforAtrialFibrillationFlutterFHIR","period":{"start":"2025-01-01","end":"2025-12-31"},"group":[{"population":[{"code":{"coding":[{"system":"http://terminology.hl7.org/CodeSystem/measure-population","code":"initial-population","display":"Initial Population"}]},"count":1},{"code":{"coding":[{"system":"http://terminology.hl7.org/CodeSystem/measure-population","code":"denominator","display":"Denominator"}]},"count":1},{"code":{"coding":[{"system":"http://terminology.hl7.org/CodeSystem/measure-population","code":"denominator-exclusion","display":"Denominator Exclusion"}]},"count":0},{"code":{"coding":[{"system":"http://terminology.hl7.org/CodeSystem/measure-population","code":"numerator","display":"Numerator"}]},"count":0},{"code":{"coding":[{"system":"http://terminology.hl7.org/CodeSystem/measure-population","code":"denominator-exception","display":"Denominator Exception"}]},"count":0}]}]},"request":{"method":"PUT","url":"MeasureReport/8b1d9e41-37c9-4c27-a6af-5f691330c261"}}]}