{"resourceType":"Bundle","id":"tests-de03a32b-a1f7-461c-9853-00c2e5586e99-bundle","type":"transaction","entry":[{"fullUrl":"https://madie.cms.gov/Patient/de03a32b-a1f7-461c-9853-00c2e5586e99","resource":{"resourceType":"Patient","id":"de03a32b-a1f7-461c-9853-00c2e5586e99","meta":{"profile":["http://hl7.org/fhir/us/qicore/StructureDefinition/qicore-patient"]},"text":{"status":"generated","div":"<div xmlns=\"http://www.w3.org/1999/xhtml\"><div class=\"hapiHeaderText\">AMA <b>DENEXPASS </b></div><table class=\"hapiPropertyTable\"><tbody><tr><td>Identifier</td><td>b38296647323cdc7f628f752ac1b84d0</td></tr><tr><td>Date of birth</td><td><span>31 July 1969</span></td></tr></tbody></table></div>"},"extension":[{"url":"http://hl7.org/fhir/us/core/StructureDefinition/us-core-race","extension":[{"url":"ombCategory","valueCoding":{"system":"urn:oid:2.16.840.1.113883.6.238","code":"1002-5","display":"American Indian or Alaska Native","userSelected":true}},{"url":"text","valueString":"American Indian or Alaska Native"}]},{"url":"http://hl7.org/fhir/us/core/StructureDefinition/us-core-ethnicity","extension":[{"url":"ombCategory","valueCoding":{"system":"urn:oid:2.16.840.1.113883.6.238","code":"2135-2","display":"Hispanic or Latino","userSelected":true}},{"url":"text","valueString":"Hispanic or Latino"}]}],"identifier":[{"type":{"coding":[{"system":"http://terminology.hl7.org/CodeSystem/v2-0203","code":"MR"}]},"system":"https://bonnie-fhir.healthit.gov/","value":"633c9d020968f8012250fc64"}],"active":true,"name":[{"use":"usual","family":"DENEXPass","given":["AMA"]}],"gender":"male","birthDate":"1969-07-31"},"request":{"method":"PUT","url":"Patient/de03a32b-a1f7-461c-9853-00c2e5586e99"}},{"fullUrl":"https://madie.cms.gov/Encounter/5c953f97b848462de0ae40d7","resource":{"resourceType":"Encounter","id":"5c953f97b848462de0ae40d7","meta":{"profile":["http://hl7.org/fhir/us/qicore/StructureDefinition/qicore-encounter"]},"status":"finished","class":{"system":"http://terminology.hl7.org/CodeSystem/v3-ActCode","code":"IMP","display":"inpatient encounter"},"type":[{"coding":[{"system":"http://snomed.info/sct","code":"32485007"}]}],"subject":{"reference":"Patient/de03a32b-a1f7-461c-9853-00c2e5586e99"},"period":{"start":"2025-11-20T08:00:00.000Z","end":"2025-11-24T08:15:00.000Z"},"length":{"value":4.0,"unit":"days"},"diagnosis":[{"condition":{"reference":"Condition/ischemic-stroke-6dfa"},"use":{"coding":[{"system":"http://snomed.info/sct","code":"111297002","display":"Nonparalytic stroke (disorder)","userSelected":true}]},"rank":1}],"hospitalization":{"dischargeDisposition":{"coding":[{"system":"http://snomed.info/sct","code":"445060000","display":"Left Against Medical Advice"}]}}},"request":{"method":"PUT","url":"Encounter/5c953f97b848462de0ae40d7"}},{"fullUrl":"https://madie.cms.gov/Procedure/5c953f97b848462de0ae40d9","resource":{"resourceType":"Procedure","id":"5c953f97b848462de0ae40d9","meta":{"profile":["http://hl7.org/fhir/us/qicore/StructureDefinition/qicore-procedure"]},"extension":[{"url":"http://hl7.org/fhir/us/qicore/StructureDefinition/qicore-recorded","valueDateTime":"2013-04-05T09:35:00-04:00"}],"status":"completed","code":{"coding":[{"system":"http://hl7.org/fhir/sid/icd-10","code":"02560ZZ"},{"system":"http://snomed.info/sct","code":"175095005"}]},"subject":{"reference":"Patient/de03a32b-a1f7-461c-9853-00c2e5586e99"},"performedPeriod":{"start":"2025-11-19T08:00:00.000Z","end":"2025-11-20T08:15:00.000Z"}},"request":{"method":"PUT","url":"Procedure/5c953f97b848462de0ae40d9"}},{"fullUrl":"https://madie.cms.gov/Condition/ischemic-stroke-6dfa","resource":{"resourceType":"Condition","id":"ischemic-stroke-6dfa","meta":{"profile":["http://hl7.org/fhir/us/qicore/StructureDefinition/qicore-condition"]},"clinicalStatus":{"coding":[{"system":"http://terminology.hl7.org/CodeSystem/condition-clinical","code":"active"}]},"verificationStatus":{"coding":[{"system":"http://terminology.hl7.org/CodeSystem/condition-ver-status","code":"confirmed"}]},"category":[{"coding":[{"system":"http://terminology.hl7.org/CodeSystem/condition-category","code":"encounter-diagnosis","display":"Encounter Diagnosis"}]}],"code":{"coding":[{"system":"http://snomed.info/sct","version":"2021-09","code":"111297002","display":"Nonparalytic stroke (disorder)","userSelected":true}]},"subject":{"reference":"Patient/de03a32b-a1f7-461c-9853-00c2e5586e99"},"recordedDate":"2025-10-04T08:00:00.000+00:00"},"request":{"method":"PUT","url":"Condition/ischemic-stroke-6dfa"}},{"fullUrl":"https://madie.cms.gov/Coverage/1","resource":{"resourceType":"Coverage","id":"1","meta":{"profile":["http://hl7.org/fhir/us/qicore/StructureDefinition/qicore-coverage"]},"status":"active","beneficiary":{"reference":"Patient/de03a32b-a1f7-461c-9853-00c2e5586e99"},"payor":[{"reference":"Organization/Org-123456"}]},"request":{"method":"PUT","url":"Coverage/1"}},{"fullUrl":"https://madie.cms.gov/Organization/123456","resource":{"resourceType":"Organization","id":"Org-123456","meta":{"profile":["http://hl7.org/fhir/us/qicore/StructureDefinition/qicore-organization"]},"identifier":[{"use":"temp","system":"urn:oid:2.16.840.1.113883.4.4","value":"21-3259825"}],"active":true,"type":[{"coding":[{"system":"http://terminology.hl7.org/CodeSystem/organization-type","code":"pay","display":"Payer"}]}],"name":"Blue Cross Blue Shield of Texas","telecom":[{"system":"phone","value":"(+1) 972-766-6900"}],"address":[{"use":"billing","type":"postal","line":["P.O. Box 660044"],"city":"Dallas","state":"TX","postalCode":"75266-0044","country":"USA"}]},"request":{"method":"PUT","url":"Organization/Org-123456"}},{"fullUrl":"https://madie.cms.gov/MeasureReport/f9e7fb43-c6c2-4319-b234-671cf178b065","resource":{"resourceType":"MeasureReport","id":"f9e7fb43-c6c2-4319-b234-671cf178b065","meta":{"profile":["http://hl7.org/fhir/us/cqfmeasures/StructureDefinition/test-case-cqfm"]},"contained":[{"resourceType":"Parameters","id":"eba58cfd-2f83-4a13-91fb-2926a47b2c06-parameters","parameter":[{"name":"subject","valueString":"de03a32b-a1f7-461c-9853-00c2e5586e99"}]}],"extension":[{"url":"http://hl7.org/fhir/us/cqfmeasures/StructureDefinition/cqfm-inputParameters","valueReference":{"reference":"#eba58cfd-2f83-4a13-91fb-2926a47b2c06-parameters"}},{"url":"http://hl7.org/fhir/us/cqfmeasures/StructureDefinition/cqfm-testCaseDescription","valueMarkdown":"Pass Denominator Exclusions because AMA (Left Against Medical Advice)"}],"modifierExtension":[{"url":"http://hl7.org/fhir/us/cqfmeasures/StructureDefinition/cqfm-isTestCase","valueBoolean":true}],"status":"complete","type":"individual","measure":"https://madie.cms.gov/Measure/AnticoagulationTherapyforAtrialFibrillationFlutterFHIR","period":{"start":"2025-01-01","end":"2025-12-31"},"group":[{"population":[{"code":{"coding":[{"system":"http://terminology.hl7.org/CodeSystem/measure-population","code":"initial-population","display":"Initial Population"}]},"count":1},{"code":{"coding":[{"system":"http://terminology.hl7.org/CodeSystem/measure-population","code":"denominator","display":"Denominator"}]},"count":1},{"code":{"coding":[{"system":"http://terminology.hl7.org/CodeSystem/measure-population","code":"denominator-exclusion","display":"Denominator Exclusion"}]},"count":1},{"code":{"coding":[{"system":"http://terminology.hl7.org/CodeSystem/measure-population","code":"numerator","display":"Numerator"}]},"count":0},{"code":{"coding":[{"system":"http://terminology.hl7.org/CodeSystem/measure-population","code":"denominator-exception","display":"Denominator Exception"}]},"count":0}]}],"evaluatedResource":[{"reference":"Patient/de03a32b-a1f7-461c-9853-00c2e5586e99"},{"reference":"Encounter/5c953f97b848462de0ae40d7"},{"reference":"Procedure/5c953f97b848462de0ae40d9"},{"reference":"Condition/ischemic-stroke-6dfa"},{"reference":"Coverage/1"},{"reference":"Organization/Org-123456"}]},"request":{"method":"PUT","url":"MeasureReport/f9e7fb43-c6c2-4319-b234-671cf178b065"}}]}