{"resourceType":"Bundle","id":"tests-63e42e45-fb2a-4a44-8354-79ea81b5d041-bundle","type":"transaction","entry":[{"fullUrl":"https://madie.cms.gov/Patient/63e42e45-fb2a-4a44-8354-79ea81b5d041","resource":{"resourceType":"Patient","id":"63e42e45-fb2a-4a44-8354-79ea81b5d041","meta":{"profile":["http://hl7.org/fhir/us/qicore/StructureDefinition/qicore-patient"]},"text":{"status":"generated","div":"<div xmlns=\"http://www.w3.org/1999/xhtml\"><div class=\"hapiHeaderText\">CMOdurObs_NoEDObs&lt;1hrBFEnc <b>DENEXPASS </b></div><table class=\"hapiPropertyTable\"><tbody><tr><td>Identifier</td><td>78184564d7a2b04b1b82068bb9a7b746</td></tr><tr><td>Date of birth</td><td><span>18 September 1985</span></td></tr></tbody></table></div>"},"extension":[{"url":"http://hl7.org/fhir/us/core/StructureDefinition/us-core-race","extension":[{"url":"ombCategory","valueCoding":{"system":"urn:oid:2.16.840.1.113883.6.238","code":"1002-5","display":"American Indian or Alaska Native","userSelected":true}},{"url":"text","valueString":"American Indian or Alaska Native"}]},{"url":"http://hl7.org/fhir/us/core/StructureDefinition/us-core-ethnicity","extension":[{"url":"ombCategory","valueCoding":{"system":"urn:oid:2.16.840.1.113883.6.238","code":"2135-2","display":"Hispanic or Latino","userSelected":true}},{"url":"text","valueString":"Hispanic or Latino"}]}],"identifier":[{"type":{"coding":[{"system":"http://terminology.hl7.org/CodeSystem/v2-0203","code":"MR"}]},"system":"https://bonnie-fhir.healthit.gov/","value":"633c9d030968f8012250fc85"}],"active":true,"name":[{"use":"usual","family":"DENEXPass","given":["CMOdurObs_NoEDObs<1hrBFEnc"]}],"gender":"female","birthDate":"1985-09-18"},"request":{"method":"PUT","url":"Patient/63e42e45-fb2a-4a44-8354-79ea81b5d041"}},{"fullUrl":"https://madie.cms.gov/Condition/5c953f97b848462de0ae4144","resource":{"resourceType":"Condition","id":"f6f3b66a-33ab-4bf4-b2bf-90e3bc660c9a","meta":{"profile":["http://hl7.org/fhir/us/qicore/StructureDefinition/qicore-condition"]},"clinicalStatus":{"coding":[{"system":"http://terminology.hl7.org/CodeSystem/condition-clinical","code":"inactive"}]},"verificationStatus":{"coding":[{"system":"http://terminology.hl7.org/CodeSystem/condition-ver-status","code":"confirmed"}]},"category":[{"coding":[{"system":"http://terminology.hl7.org/CodeSystem/condition-category","code":"encounter-diagnosis","display":"Encounter Diagnosis"}]}],"code":{"coding":[{"system":"http://hl7.org/fhir/sid/icd-10-cm","code":"I48.20"},{"system":"http://hl7.org/fhir/sid/icd-10-cm","code":"I48.0"},{"system":"http://snomed.info/sct","code":"5370000"}]},"subject":{"reference":"Patient/63e42e45-fb2a-4a44-8354-79ea81b5d041"},"onsetDateTime":"2025-02-11T08:00:00.000Z","abatementDateTime":"2025-02-11T08:15:00.000Z"},"request":{"method":"PUT","url":"Condition/f6f3b66a-33ab-4bf4-b2bf-90e3bc660c9a"}},{"fullUrl":"https://madie.cms.gov/Condition/5c953f97b848462de0ae4145","resource":{"resourceType":"Condition","id":"155ebaca-a07f-4340-b870-6d62755f8fb7","meta":{"profile":["http://hl7.org/fhir/us/qicore/StructureDefinition/qicore-condition"]},"clinicalStatus":{"coding":[{"system":"http://terminology.hl7.org/CodeSystem/condition-clinical","code":"inactive"}]},"verificationStatus":{"coding":[{"system":"http://terminology.hl7.org/CodeSystem/condition-ver-status","code":"confirmed"}]},"category":[{"coding":[{"system":"http://terminology.hl7.org/CodeSystem/condition-category","code":"encounter-diagnosis","display":"Encounter Diagnosis"}]}],"code":{"coding":[{"system":"http://hl7.org/fhir/sid/icd-10-cm","code":"I48.20"},{"system":"http://hl7.org/fhir/sid/icd-10-cm","code":"I48.0"},{"system":"http://snomed.info/sct","code":"5370000"}]},"subject":{"reference":"Patient/63e42e45-fb2a-4a44-8354-79ea81b5d041"},"onsetDateTime":"2025-10-01T09:00:00.000Z","abatementDateTime":"2025-10-12T00:15:00.000Z"},"request":{"method":"PUT","url":"Condition/155ebaca-a07f-4340-b870-6d62755f8fb7"}},{"fullUrl":"https://madie.cms.gov/Encounter/5c953f97b848462de0ae4146","resource":{"resourceType":"Encounter","id":"7c0da930-e902-4617-99ba-320f1977a1f4","meta":{"profile":["http://hl7.org/fhir/us/qicore/StructureDefinition/qicore-encounter"]},"status":"finished","class":{"system":"http://terminology.hl7.org/CodeSystem/v3-ActCode","code":"OBSENC","display":"observation encounter"},"type":[{"coding":[{"system":"http://snomed.info/sct","code":"448951000124107"}]}],"subject":{"reference":"Patient/63e42e45-fb2a-4a44-8354-79ea81b5d041"},"period":{"start":"2025-10-01T08:00:00.000Z","end":"2025-10-01T08:59:00.000Z"},"length":{"value":0,"unit":"days"}},"request":{"method":"PUT","url":"Encounter/7c0da930-e902-4617-99ba-320f1977a1f4"}},{"fullUrl":"https://madie.cms.gov/Encounter/5c953f97b848462de0ae4147","resource":{"resourceType":"Encounter","id":"2493b740-982a-4cb7-b15d-a6cd976f9b4b","meta":{"profile":["http://hl7.org/fhir/us/qicore/StructureDefinition/qicore-encounter"]},"status":"finished","class":{"system":"http://terminology.hl7.org/CodeSystem/v3-ActCode","code":"IMP","display":"inpatient encounter"},"type":[{"coding":[{"system":"http://snomed.info/sct","code":"32485007"}]}],"subject":{"reference":"Patient/63e42e45-fb2a-4a44-8354-79ea81b5d041"},"period":{"start":"2025-10-01T09:00:00.000Z","end":"2025-10-12T00:15:00.000Z"},"length":{"value":11,"unit":"days"},"diagnosis":[{"condition":{"reference":"Condition/ischemic-stroke-196c"},"use":{"coding":[{"system":"http://terminology.hl7.org/CodeSystem/diagnosis-role","code":"billing","display":"Billing"}]},"rank":1}]},"request":{"method":"PUT","url":"Encounter/2493b740-982a-4cb7-b15d-a6cd976f9b4b"}},{"fullUrl":"https://madie.cms.gov/ServiceRequest/5c953f97b848462de0ae4149","resource":{"resourceType":"ServiceRequest","id":"1e1b1b7f-91f5-4b77-8366-f0bf1876b9b0","meta":{"profile":["http://hl7.org/fhir/us/qicore/StructureDefinition/qicore-servicerequest"]},"status":"active","intent":"order","code":{"coding":[{"system":"http://snomed.info/sct","code":"133918004"}]},"subject":{"reference":"Patient/63e42e45-fb2a-4a44-8354-79ea81b5d041"},"authoredOn":"2025-10-01T08:01:00.000+00:00"},"request":{"method":"PUT","url":"ServiceRequest/1e1b1b7f-91f5-4b77-8366-f0bf1876b9b0"}},{"fullUrl":"https://madie.cms.gov/Coverage/5f2c53cb1c76ba5c9960572f","resource":{"resourceType":"Coverage","id":"10783df8-9947-424b-984a-24c8bf9a61ec","status":"active","beneficiary":{"reference":"Patient/63e42e45-fb2a-4a44-8354-79ea81b5d041"},"period":{"start":"1985-09-18T08:00:00.000Z"},"payor":[{"reference":"Organization/9e9b3f13-a353-4173-b29b-947d6f1f2031"}]},"request":{"method":"PUT","url":"Coverage/10783df8-9947-424b-984a-24c8bf9a61ec"}},{"fullUrl":"https://madie.cms.gov/Condition/ischemic-stroke-196c","resource":{"resourceType":"Condition","id":"a7db231c-6978-46f7-882d-71649a606649","meta":{"profile":["http://hl7.org/fhir/us/qicore/StructureDefinition/qicore-condition"]},"clinicalStatus":{"coding":[{"system":"http://terminology.hl7.org/CodeSystem/condition-clinical","code":"active"}]},"verificationStatus":{"coding":[{"system":"http://terminology.hl7.org/CodeSystem/condition-ver-status","code":"confirmed"}]},"category":[{"coding":[{"system":"http://terminology.hl7.org/CodeSystem/condition-category","code":"encounter-diagnosis","display":"Encounter Diagnosis"}]}],"code":{"coding":[{"system":"http://snomed.info/sct","version":"2021-09","code":"111297002","display":"Nonparalytic stroke (disorder)","userSelected":true}]},"subject":{"reference":"Patient/63e42e45-fb2a-4a44-8354-79ea81b5d041"},"recordedDate":"2025-10-13T08:00:00.000+00:00"},"request":{"method":"PUT","url":"Condition/a7db231c-6978-46f7-882d-71649a606649"}},{"fullUrl":"https://madie.cms.gov/Organization/123456","resource":{"resourceType":"Organization","id":"9e9b3f13-a353-4173-b29b-947d6f1f2031","meta":{"profile":["http://hl7.org/fhir/us/qicore/StructureDefinition/qicore-organization"]},"identifier":[{"use":"temp","system":"urn:oid:2.16.840.1.113883.4.4","value":"21-3259825"}],"active":true,"type":[{"coding":[{"system":"http://terminology.hl7.org/CodeSystem/organization-type","code":"pay","display":"Payer"}]}],"name":"Blue Cross Blue Shield of Texas","telecom":[{"system":"phone","value":"(+1) 972-766-6900"}],"address":[{"use":"billing","type":"postal","line":["P.O. Box 660044"],"city":"Dallas","state":"TX","postalCode":"75266-0044","country":"USA"}]},"request":{"method":"PUT","url":"Organization/9e9b3f13-a353-4173-b29b-947d6f1f2031"}},{"fullUrl":"https://madie.cms.gov/Practitioner/practitioner-123456","resource":{"resourceType":"Practitioner","id":"3b0ee5d8-a99a-4689-bea8-19d96932f224","identifier":[{"system":"http://hl7.org/fhir/sid/us-npi","value":"123456"}],"name":[{"family":"Evil","prefix":["Dr"]}]},"request":{"method":"PUT","url":"Practitioner/3b0ee5d8-a99a-4689-bea8-19d96932f224"}},{"fullUrl":"https://madie.cms.gov/MeasureReport/32d636f7-3938-4aa4-8b69-bce781dcb452","resource":{"resourceType":"MeasureReport","id":"32d636f7-3938-4aa4-8b69-bce781dcb452","meta":{"profile":["http://hl7.org/fhir/us/cqfmeasures/StructureDefinition/test-case-cqfm"]},"contained":[{"resourceType":"Parameters","id":"33969c87-3909-4db6-8a6f-bf714c45aed3-parameters","parameter":[{"name":"subject","valueString":"63e42e45-fb2a-4a44-8354-79ea81b5d041"}]}],"extension":[{"url":"http://hl7.org/fhir/us/cqfmeasures/StructureDefinition/cqfm-inputParameters","valueReference":{"reference":"#33969c87-3909-4db6-8a6f-bf714c45aed3-parameters"}},{"url":"http://hl7.org/fhir/us/cqfmeasures/StructureDefinition/cqfm-testCaseDescription","valueMarkdown":"Patient receives Observation. No ED Obs starts 1 min before inpatient encounter. Testing HospitalizationWithObservation function.\n"}],"modifierExtension":[{"url":"http://hl7.org/fhir/us/cqfmeasures/StructureDefinition/cqfm-isTestCase","valueBoolean":true}],"status":"complete","type":"individual","measure":"https://madie.cms.gov/Measure/AnticoagulationTherapyforAtrialFibrillationFlutterFHIR","period":{"start":"2025-01-01","end":"2025-12-31"},"group":[{"population":[{"code":{"coding":[{"system":"http://terminology.hl7.org/CodeSystem/measure-population","code":"initial-population","display":"Initial Population"}]},"count":1},{"code":{"coding":[{"system":"http://terminology.hl7.org/CodeSystem/measure-population","code":"denominator","display":"Denominator"}]},"count":1},{"code":{"coding":[{"system":"http://terminology.hl7.org/CodeSystem/measure-population","code":"denominator-exclusion","display":"Denominator Exclusion"}]},"count":1},{"code":{"coding":[{"system":"http://terminology.hl7.org/CodeSystem/measure-population","code":"numerator","display":"Numerator"}]},"count":0},{"code":{"coding":[{"system":"http://terminology.hl7.org/CodeSystem/measure-population","code":"denominator-exception","display":"Denominator Exception"}]},"count":0}]}]},"request":{"method":"PUT","url":"MeasureReport/32d636f7-3938-4aa4-8b69-bce781dcb452"}}]}