{"resourceType":"Bundle","id":"tests-60216757-e9a7-4e33-90f4-d0b1212bdea9-bundle","type":"transaction","entry":[{"fullUrl":"https://madie.cms.gov/Patient/60216757-e9a7-4e33-90f4-d0b1212bdea9","resource":{"resourceType":"Patient","id":"60216757-e9a7-4e33-90f4-d0b1212bdea9","meta":{"profile":["http://hl7.org/fhir/us/qicore/StructureDefinition/qicore-patient"]},"text":{"status":"generated","div":"<div xmlns=\"http://www.w3.org/1999/xhtml\"><div class=\"hapiHeaderText\">DxAfibAtEncEndTimeRelePer <b>DENOMPASS </b></div><table class=\"hapiPropertyTable\"><tbody><tr><td>Identifier</td><td>5a408ee0f4b76e6dba49aa216933f4fd3c68886efc9f6296ba7db457bf6444a8</td></tr><tr><td>Date of birth</td><td><span>01 December 1960</span></td></tr></tbody></table></div>"},"extension":[{"url":"http://hl7.org/fhir/us/core/StructureDefinition/us-core-race","extension":[{"url":"ombCategory","valueCoding":{"system":"urn:oid:2.16.840.1.113883.6.238","code":"1002-5","display":"American Indian or Alaska Native","userSelected":true}},{"url":"text","valueString":"American Indian or Alaska Native"}]},{"url":"http://hl7.org/fhir/us/core/StructureDefinition/us-core-ethnicity","extension":[{"url":"ombCategory","valueCoding":{"system":"urn:oid:2.16.840.1.113883.6.238","code":"2135-2","display":"Hispanic or Latino","userSelected":true}},{"url":"text","valueString":"Hispanic or Latino"}]}],"identifier":[{"type":{"coding":[{"system":"http://terminology.hl7.org/CodeSystem/v2-0203","code":"MR"}]},"system":"https://bonnie-fhir.healthit.gov/","value":"633c9d040968f8012250fca1"}],"active":true,"name":[{"use":"usual","family":"DENOMPass","given":["DxAfibAtEncEndTimeRelePer"]}],"gender":"male","birthDate":"1960-12-01"},"request":{"method":"PUT","url":"Patient/60216757-e9a7-4e33-90f4-d0b1212bdea9"}},{"fullUrl":"https://madie.cms.gov/Condition/5c953f97b848462de0ae4106","resource":{"resourceType":"Condition","id":"8a6d83d2-4912-43c3-b075-e1b5dee516c8","meta":{"profile":["http://hl7.org/fhir/us/qicore/StructureDefinition/qicore-condition"]},"clinicalStatus":{"coding":[{"system":"http://terminology.hl7.org/CodeSystem/condition-clinical","code":"inactive"}]},"verificationStatus":{"coding":[{"system":"http://terminology.hl7.org/CodeSystem/condition-ver-status","code":"confirmed"}]},"category":[{"coding":[{"system":"http://terminology.hl7.org/CodeSystem/condition-category","code":"encounter-diagnosis","display":"Encounter Diagnosis"}]}],"code":{"coding":[{"system":"http://snomed.info/sct","code":"195080001"},{"system":"http://hl7.org/fhir/sid/icd-9-cm","code":"427.31"},{"system":"http://hl7.org/fhir/sid/icd-10-cm","code":"I48.0"}]},"subject":{"reference":"Patient/60216757-e9a7-4e33-90f4-d0b1212bdea9"},"onsetDateTime":"2025-02-10T08:15:00.000Z","abatementDateTime":"2025-02-10T09:15:00.000Z"},"request":{"method":"PUT","url":"Condition/8a6d83d2-4912-43c3-b075-e1b5dee516c8"}},{"fullUrl":"https://madie.cms.gov/Encounter/5c953f97b848462de0ae4107","resource":{"resourceType":"Encounter","id":"befdacc1-4ae0-4ef0-94c2-d4936e2b7068","meta":{"profile":["http://hl7.org/fhir/us/qicore/StructureDefinition/qicore-encounter"]},"status":"finished","class":{"system":"http://terminology.hl7.org/CodeSystem/v3-ActCode","code":"IMP","display":"inpatient encounter"},"type":[{"coding":[{"system":"http://snomed.info/sct","code":"32485007"}]}],"subject":{"reference":"Patient/60216757-e9a7-4e33-90f4-d0b1212bdea9"},"period":{"start":"2025-02-08T08:00:00.000Z","end":"2025-02-10T08:15:00.000Z"},"length":{"value":2,"unit":"days"},"diagnosis":[{"condition":{"reference":"Condition/ischemic-stroke-197d"},"use":{"coding":[{"system":"http://terminology.hl7.org/CodeSystem/diagnosis-role","code":"billing","display":"Billing"}]},"rank":1}]},"request":{"method":"PUT","url":"Encounter/befdacc1-4ae0-4ef0-94c2-d4936e2b7068"}},{"fullUrl":"https://madie.cms.gov/Coverage/5f2c53ce1c76ba5c99605780","resource":{"resourceType":"Coverage","id":"08cd5622-1264-43cc-b58f-b2b1e42b8f99","status":"active","beneficiary":{"reference":"Patient/60216757-e9a7-4e33-90f4-d0b1212bdea9"},"period":{"start":"1960-12-01T08:00:00.000Z"},"payor":[{"reference":"Organization/33ead57e-5e04-40e4-95ea-bc3cdbd58917"}]},"request":{"method":"PUT","url":"Coverage/08cd5622-1264-43cc-b58f-b2b1e42b8f99"}},{"fullUrl":"https://madie.cms.gov/Condition/ischemic-stroke-197d","resource":{"resourceType":"Condition","id":"0f57a9f8-ad52-4808-9bed-212325c2dd1c","meta":{"profile":["http://hl7.org/fhir/us/qicore/StructureDefinition/qicore-condition"]},"clinicalStatus":{"coding":[{"system":"http://terminology.hl7.org/CodeSystem/condition-clinical","code":"active"}]},"verificationStatus":{"coding":[{"system":"http://terminology.hl7.org/CodeSystem/condition-ver-status","code":"confirmed"}]},"category":[{"coding":[{"system":"http://terminology.hl7.org/CodeSystem/condition-category","code":"encounter-diagnosis","display":"Encounter Diagnosis"}]}],"code":{"coding":[{"system":"http://snomed.info/sct","version":"2021-09","code":"111297002","display":"Nonparalytic stroke (disorder)","userSelected":true}]},"subject":{"reference":"Patient/60216757-e9a7-4e33-90f4-d0b1212bdea9"},"recordedDate":"2025-10-13T08:00:00.000+00:00"},"request":{"method":"PUT","url":"Condition/0f57a9f8-ad52-4808-9bed-212325c2dd1c"}},{"fullUrl":"https://madie.cms.gov/Organization/123456","resource":{"resourceType":"Organization","id":"33ead57e-5e04-40e4-95ea-bc3cdbd58917","meta":{"profile":["http://hl7.org/fhir/us/qicore/StructureDefinition/qicore-organization"]},"identifier":[{"use":"temp","system":"urn:oid:2.16.840.1.113883.4.4","value":"21-3259825"}],"active":true,"type":[{"coding":[{"system":"http://terminology.hl7.org/CodeSystem/organization-type","code":"pay","display":"Payer"}]}],"name":"Blue Cross Blue Shield of Texas","telecom":[{"system":"phone","value":"(+1) 972-766-6900"}],"address":[{"use":"billing","type":"postal","line":["P.O. Box 660044"],"city":"Dallas","state":"TX","postalCode":"75266-0044","country":"USA"}]},"request":{"method":"PUT","url":"Organization/33ead57e-5e04-40e4-95ea-bc3cdbd58917"}},{"fullUrl":"https://madie.cms.gov/Practitioner/practitioner-123456","resource":{"resourceType":"Practitioner","id":"4253464f-201f-485d-b758-81fffe9e2569","identifier":[{"system":"http://hl7.org/fhir/sid/us-npi","value":"123456"}],"name":[{"family":"Evil","prefix":["Dr"]}]},"request":{"method":"PUT","url":"Practitioner/4253464f-201f-485d-b758-81fffe9e2569"}},{"fullUrl":"https://madie.cms.gov/MeasureReport/7e4d63ee-a6e7-4612-855c-bb8a1348e09f","resource":{"resourceType":"MeasureReport","id":"7e4d63ee-a6e7-4612-855c-bb8a1348e09f","meta":{"profile":["http://hl7.org/fhir/us/cqfmeasures/StructureDefinition/test-case-cqfm"]},"contained":[{"resourceType":"Parameters","id":"971725be-93f8-4859-b440-db103604cab7-parameters","parameter":[{"name":"subject","valueString":"60216757-e9a7-4e33-90f4-d0b1212bdea9"}]}],"extension":[{"url":"http://hl7.org/fhir/us/cqfmeasures/StructureDefinition/cqfm-inputParameters","valueReference":{"reference":"#971725be-93f8-4859-b440-db103604cab7-parameters"}},{"url":"http://hl7.org/fhir/us/cqfmeasures/StructureDefinition/cqfm-testCaseDescription","valueMarkdown":"\"Afib as a Diagnosis Datatype, starts at OccurA EndDate time\nEdge case to test timing boundaries of diagnosis. \"\n"}],"modifierExtension":[{"url":"http://hl7.org/fhir/us/cqfmeasures/StructureDefinition/cqfm-isTestCase","valueBoolean":true}],"status":"complete","type":"individual","measure":"https://madie.cms.gov/Measure/AnticoagulationTherapyforAtrialFibrillationFlutterFHIR","period":{"start":"2025-01-01","end":"2025-12-31"},"group":[{"population":[{"code":{"coding":[{"system":"http://terminology.hl7.org/CodeSystem/measure-population","code":"initial-population","display":"Initial Population"}]},"count":1},{"code":{"coding":[{"system":"http://terminology.hl7.org/CodeSystem/measure-population","code":"denominator","display":"Denominator"}]},"count":1},{"code":{"coding":[{"system":"http://terminology.hl7.org/CodeSystem/measure-population","code":"denominator-exclusion","display":"Denominator Exclusion"}]},"count":0},{"code":{"coding":[{"system":"http://terminology.hl7.org/CodeSystem/measure-population","code":"numerator","display":"Numerator"}]},"count":0},{"code":{"coding":[{"system":"http://terminology.hl7.org/CodeSystem/measure-population","code":"denominator-exception","display":"Denominator Exception"}]},"count":0}]}]},"request":{"method":"PUT","url":"MeasureReport/7e4d63ee-a6e7-4612-855c-bb8a1348e09f"}}]}