{"resourceType":"Bundle","id":"tests-e75d7e1c-df18-487e-a8f0-0b140e120581-bundle","type":"transaction","entry":[{"fullUrl":"https://madie.cms.gov/Patient/213582ab-d021-4234-9e00-1427d3a593e6","resource":{"resourceType":"Patient","id":"213582ab-d021-4234-9e00-1427d3a593e6","meta":{"profile":["http://hl7.org/fhir/us/qicore/StructureDefinition/qicore-patient"]},"text":{"status":"generated","div":"<div xmlns=\"http://www.w3.org/1999/xhtml\"><div class=\"hapiHeaderText\">EncPrinDx=IschStk_EncDx=Afib/flutter <b>DENOMPASS </b></div><table class=\"hapiPropertyTable\"><tbody><tr><td>Identifier</td><td>bfd807e1d1993084d1164432ce591a06</td></tr><tr><td>Date of birth</td><td><span>01 December 1960</span></td></tr></tbody></table></div>"},"extension":[{"url":"http://hl7.org/fhir/us/core/StructureDefinition/us-core-race","extension":[{"url":"ombCategory","valueCoding":{"system":"urn:oid:2.16.840.1.113883.6.238","code":"1002-5","display":"American Indian or Alaska Native","userSelected":true}},{"url":"text","valueString":"American Indian or Alaska Native"}]},{"url":"http://hl7.org/fhir/us/core/StructureDefinition/us-core-ethnicity","extension":[{"url":"ombCategory","valueCoding":{"system":"urn:oid:2.16.840.1.113883.6.238","code":"2135-2","display":"Hispanic or Latino","userSelected":true}},{"url":"text","valueString":"Hispanic or Latino"}]}],"identifier":[{"type":{"coding":[{"system":"http://terminology.hl7.org/CodeSystem/v2-0203","code":"MR"}]},"system":"https://bonnie-fhir.healthit.gov/","value":"633c9d030968f8012250fc6d"}],"active":true,"name":[{"use":"usual","family":"DENOMPass","given":["EncPrinDx=IschStk_EncDx=Afib/flutter"]}],"gender":"male","birthDate":"1960-12-01"},"request":{"method":"PUT","url":"Patient/213582ab-d021-4234-9e00-1427d3a593e6"}},{"fullUrl":"https://madie.cms.gov/Encounter/7c8cf0e4-c658-4c8e-9594-e8d216eb9189","resource":{"resourceType":"Encounter","id":"7c8cf0e4-c658-4c8e-9594-e8d216eb9189","meta":{"profile":["http://hl7.org/fhir/us/qicore/StructureDefinition/qicore-encounter"]},"status":"finished","class":{"system":"http://terminology.hl7.org/CodeSystem/v3-ActCode","code":"IMP","display":"inpatient encounter"},"type":[{"coding":[{"system":"http://snomed.info/sct","code":"183452005"}]}],"subject":{"reference":"Patient/213582ab-d021-4234-9e00-1427d3a593e6"},"period":{"start":"2025-02-08T08:00:00.000Z","end":"2025-02-10T08:15:00.000Z"},"length":{"value":2,"unit":"days"},"diagnosis":[{"condition":{"reference":"Condition/03b03b6d-d208-43a4-ba2a-832d5b88ce5e"},"use":{"coding":[{"system":"http://terminology.hl7.org/CodeSystem/diagnosis-role","code":"billing","display":"Billing"}]},"rank":1},{"condition":{"reference":"Condition/032cbcc8-7aa5-451b-a928-371b322709f0"},"use":{"coding":[{"system":"http://snomed.info/sct","code":"120041000119109","display":"Atrial Fibrillation/Flutter"}]}}]},"request":{"method":"PUT","url":"Encounter/7c8cf0e4-c658-4c8e-9594-e8d216eb9189"}},{"fullUrl":"https://madie.cms.gov/Coverage/81d33d5b-8f28-40b3-9251-c80eba0775c4","resource":{"resourceType":"Coverage","id":"81d33d5b-8f28-40b3-9251-c80eba0775c4","status":"active","beneficiary":{"reference":"Patient/213582ab-d021-4234-9e00-1427d3a593e6"},"period":{"start":"1960-12-01T08:00:00.000Z"},"payor":[{"reference":"Organization/26111c91-b0e2-476c-a20b-e3f39799f8f5"}]},"request":{"method":"PUT","url":"Coverage/81d33d5b-8f28-40b3-9251-c80eba0775c4"}},{"fullUrl":"https://madie.cms.gov/Condition/03b03b6d-d208-43a4-ba2a-832d5b88ce5e","resource":{"resourceType":"Condition","id":"03b03b6d-d208-43a4-ba2a-832d5b88ce5e","meta":{"profile":["http://hl7.org/fhir/us/qicore/StructureDefinition/qicore-condition"]},"clinicalStatus":{"coding":[{"system":"http://terminology.hl7.org/CodeSystem/condition-clinical","code":"active"}]},"verificationStatus":{"coding":[{"system":"http://terminology.hl7.org/CodeSystem/condition-ver-status","code":"confirmed"}]},"category":[{"coding":[{"system":"http://terminology.hl7.org/CodeSystem/condition-category","code":"encounter-diagnosis","display":"Encounter Diagnosis"}]}],"code":{"coding":[{"system":"http://snomed.info/sct","version":"2021-09","code":"111297002","display":"Nonparalytic stroke (disorder)","userSelected":true}]},"subject":{"reference":"Patient/213582ab-d021-4234-9e00-1427d3a593e6"},"recordedDate":"2025-10-13T08:00:00.000+00:00"},"request":{"method":"PUT","url":"Condition/03b03b6d-d208-43a4-ba2a-832d5b88ce5e"}},{"fullUrl":"https://madie.cms.gov/Condition/032cbcc8-7aa5-451b-a928-371b322709f0","resource":{"resourceType":"Condition","id":"032cbcc8-7aa5-451b-a928-371b322709f0","meta":{"profile":["http://hl7.org/fhir/us/qicore/StructureDefinition/qicore-condition"]},"clinicalStatus":{"coding":[{"system":"http://terminology.hl7.org/CodeSystem/condition-clinical","code":"active"}]},"verificationStatus":{"coding":[{"system":"http://terminology.hl7.org/CodeSystem/condition-ver-status","code":"confirmed"}]},"category":[{"coding":[{"system":"http://terminology.hl7.org/CodeSystem/condition-category","code":"encounter-diagnosis","display":"Encounter Diagnosis"}]}],"code":{"coding":[{"system":"http://snomed.info/sct","version":"2021-09","code":"120041000119109","display":"Atrial fibrillation with rapid ventricular response (disorder)","userSelected":true}]},"subject":{"reference":"Patient/213582ab-d021-4234-9e00-1427d3a593e6"},"recordedDate":"2025-10-13T08:00:00.000+00:00"},"request":{"method":"PUT","url":"Condition/032cbcc8-7aa5-451b-a928-371b322709f0"}},{"fullUrl":"https://madie.cms.gov/Organization/5bc90838-060a-4387-a361-29b784e20a52","resource":{"resourceType":"Organization","id":"26111c91-b0e2-476c-a20b-e3f39799f8f5","meta":{"profile":["http://hl7.org/fhir/us/qicore/StructureDefinition/qicore-organization"]},"identifier":[{"use":"temp","system":"urn:oid:2.16.840.1.113883.4.4","value":"21-3259825"}],"active":true,"type":[{"coding":[{"system":"http://terminology.hl7.org/CodeSystem/organization-type","code":"pay","display":"Payer"}]}],"name":"Blue Cross Blue Shield of Texas","telecom":[{"system":"phone","value":"(+1) 972-766-6900"}],"address":[{"use":"billing","type":"postal","line":["P.O. Box 660044"],"city":"Dallas","state":"TX","postalCode":"75266-0044","country":"USA"}]},"request":{"method":"PUT","url":"Organization/26111c91-b0e2-476c-a20b-e3f39799f8f5"}},{"fullUrl":"https://madie.cms.gov/Practitioner/4849fb6f-8a91-4157-8eab-a80306ec76e6","resource":{"resourceType":"Practitioner","id":"4849fb6f-8a91-4157-8eab-a80306ec76e6","identifier":[{"system":"http://hl7.org/fhir/sid/us-npi","value":"123456"}],"name":[{"family":"Evil","prefix":["Dr"]}]},"request":{"method":"PUT","url":"Practitioner/4849fb6f-8a91-4157-8eab-a80306ec76e6"}},{"fullUrl":"https://madie.cms.gov/MeasureReport/cff64b70-ed3a-4b38-a030-b4c10e01d3df","resource":{"resourceType":"MeasureReport","id":"cff64b70-ed3a-4b38-a030-b4c10e01d3df","meta":{"profile":["http://hl7.org/fhir/us/cqfmeasures/StructureDefinition/test-case-cqfm"]},"contained":[{"resourceType":"Parameters","id":"c24de5dd-69e7-43fb-bcc8-29b81441e13e-parameters","parameter":[{"name":"subject","valueString":"213582ab-d021-4234-9e00-1427d3a593e6"}]}],"extension":[{"url":"http://hl7.org/fhir/us/cqfmeasures/StructureDefinition/cqfm-inputParameters","valueReference":{"reference":"#c24de5dd-69e7-43fb-bcc8-29b81441e13e-parameters"}},{"url":"http://hl7.org/fhir/us/cqfmeasures/StructureDefinition/cqfm-testCaseDescription","valueMarkdown":"\"Diagnosis Attribute= Afib during encounter\nThis case tests the denominator diagnosis criteria (meets criteria). \"\n"}],"modifierExtension":[{"url":"http://hl7.org/fhir/us/cqfmeasures/StructureDefinition/cqfm-isTestCase","valueBoolean":true}],"status":"complete","type":"individual","measure":"https://madie.cms.gov/Measure/AnticoagulationTherapyforAtrialFibrillationFlutterFHIR","period":{"start":"2025-01-01","end":"2025-12-31"},"group":[{"population":[{"code":{"coding":[{"system":"http://terminology.hl7.org/CodeSystem/measure-population","code":"initial-population","display":"Initial Population"}]},"count":1},{"code":{"coding":[{"system":"http://terminology.hl7.org/CodeSystem/measure-population","code":"denominator","display":"Denominator"}]},"count":1},{"code":{"coding":[{"system":"http://terminology.hl7.org/CodeSystem/measure-population","code":"denominator-exclusion","display":"Denominator Exclusion"}]},"count":0},{"code":{"coding":[{"system":"http://terminology.hl7.org/CodeSystem/measure-population","code":"numerator","display":"Numerator"}]},"count":0},{"code":{"coding":[{"system":"http://terminology.hl7.org/CodeSystem/measure-population","code":"denominator-exception","display":"Denominator Exception"}]},"count":0}]}]},"request":{"method":"PUT","url":"MeasureReport/cff64b70-ed3a-4b38-a030-b4c10e01d3df"}}]}