{"resourceType":"Bundle","id":"tests-e73d1055-c564-4663-9af0-d3ccabeb49c8-bundle","type":"transaction","entry":[{"fullUrl":"https://madie.cms.gov/Patient/e73d1055-c564-4663-9af0-d3ccabeb49c8","resource":{"resourceType":"Patient","id":"e73d1055-c564-4663-9af0-d3ccabeb49c8","meta":{"profile":["http://hl7.org/fhir/us/qicore/StructureDefinition/qicore-patient"]},"text":{"status":"generated","div":"<div xmlns=\"http://www.w3.org/1999/xhtml\"><div class=\"hapiHeaderText\">CMOdurED_ED=1hrObs=1hrBFEnc <b>DENEXPASS </b></div><table class=\"hapiPropertyTable\"><tbody><tr><td>Identifier</td><td>6154ed3e6029d496bda5b35d3515afbbdc41984dd4c9181d132c9b1c15092843</td></tr><tr><td>Date of birth</td><td><span>18 September 1985</span></td></tr></tbody></table></div>"},"extension":[{"url":"http://hl7.org/fhir/us/core/StructureDefinition/us-core-race","extension":[{"url":"ombCategory","valueCoding":{"system":"urn:oid:2.16.840.1.113883.6.238","code":"1002-5","display":"American Indian or Alaska Native","userSelected":true}},{"url":"text","valueString":"American Indian or Alaska Native"}]},{"url":"http://hl7.org/fhir/us/core/StructureDefinition/us-core-ethnicity","extension":[{"url":"ombCategory","valueCoding":{"system":"urn:oid:2.16.840.1.113883.6.238","code":"2135-2","display":"Hispanic or Latino","userSelected":true}},{"url":"text","valueString":"Hispanic or Latino"}]}],"identifier":[{"type":{"coding":[{"system":"http://terminology.hl7.org/CodeSystem/v2-0203","code":"MR"}]},"system":"https://bonnie-fhir.healthit.gov/","value":"633c9d040968f8012250fca6"}],"active":true,"name":[{"use":"usual","family":"DENEXPass","given":["CMOdurED_ED=1hrObs=1hrBFEnc"]}],"gender":"female","birthDate":"1985-09-18"},"request":{"method":"PUT","url":"Patient/e73d1055-c564-4663-9af0-d3ccabeb49c8"}},{"fullUrl":"https://madie.cms.gov/Condition/5c953f97b848462de0ae415b","resource":{"resourceType":"Condition","id":"5c953f97b848462de0ae415b","meta":{"profile":["http://hl7.org/fhir/us/qicore/StructureDefinition/qicore-condition"]},"clinicalStatus":{"coding":[{"system":"http://terminology.hl7.org/CodeSystem/condition-clinical","code":"inactive"}]},"verificationStatus":{"coding":[{"system":"http://terminology.hl7.org/CodeSystem/condition-ver-status","code":"confirmed"}]},"category":[{"coding":[{"system":"http://terminology.hl7.org/CodeSystem/condition-category","code":"encounter-diagnosis","display":"Encounter Diagnosis"}]}],"code":{"coding":[{"system":"http://hl7.org/fhir/sid/icd-10-cm","code":"I48.20"},{"system":"http://hl7.org/fhir/sid/icd-10-cm","code":"I48.0"},{"system":"http://snomed.info/sct","code":"5370000"}]},"subject":{"reference":"Patient/e73d1055-c564-4663-9af0-d3ccabeb49c8"},"onsetDateTime":"2025-10-01T09:00:00.000Z","abatementDateTime":"2025-10-12T00:15:00.000Z"},"request":{"method":"PUT","url":"Condition/5c953f97b848462de0ae415b"}},{"fullUrl":"https://madie.cms.gov/Encounter/5c953f97b848462de0ae415c","resource":{"resourceType":"Encounter","id":"5c953f97b848462de0ae415c","meta":{"profile":["http://hl7.org/fhir/us/qicore/StructureDefinition/qicore-encounter"]},"status":"finished","class":{"system":"http://terminology.hl7.org/CodeSystem/v3-ActCode","code":"EMER","display":"emergency"},"type":[{"coding":[{"system":"http://snomed.info/sct","code":"4525004"}]}],"subject":{"reference":"Patient/e73d1055-c564-4663-9af0-d3ccabeb49c8"},"period":{"start":"2025-09-30T07:59:00.000Z","end":"2025-09-30T08:00:00.000Z"},"length":{"value":0.0,"unit":"days"}},"request":{"method":"PUT","url":"Encounter/5c953f97b848462de0ae415c"}},{"fullUrl":"https://madie.cms.gov/Encounter/5c953f97b848462de0ae415d","resource":{"resourceType":"Encounter","id":"5c953f97b848462de0ae415d","meta":{"profile":["http://hl7.org/fhir/us/qicore/StructureDefinition/qicore-encounter"]},"status":"finished","class":{"system":"http://terminology.hl7.org/CodeSystem/v3-ActCode","code":"OBSENC","display":"observation encounter"},"type":[{"coding":[{"system":"http://snomed.info/sct","code":"448951000124107"}]}],"subject":{"reference":"Patient/e73d1055-c564-4663-9af0-d3ccabeb49c8"},"period":{"start":"2025-09-30T09:00:00.000Z","end":"2025-09-30T09:01:00.000Z"},"length":{"value":0.0,"unit":"days"}},"request":{"method":"PUT","url":"Encounter/5c953f97b848462de0ae415d"}},{"fullUrl":"https://madie.cms.gov/Encounter/5c953f97b848462de0ae415e","resource":{"resourceType":"Encounter","id":"5c953f97b848462de0ae415e","meta":{"profile":["http://hl7.org/fhir/us/qicore/StructureDefinition/qicore-encounter"]},"status":"finished","class":{"system":"http://terminology.hl7.org/CodeSystem/v3-ActCode","code":"IMP","display":"inpatient encounter"},"type":[{"coding":[{"system":"http://snomed.info/sct","code":"32485007"}]}],"subject":{"reference":"Patient/e73d1055-c564-4663-9af0-d3ccabeb49c8"},"period":{"start":"2025-09-30T10:01:00.000Z","end":"2025-10-12T00:15:00.000Z"},"length":{"value":12.0,"unit":"days"},"diagnosis":[{"condition":{"reference":"Condition/ischemic-stroke-1965"},"use":{"coding":[{"system":"http://hl7.org/fhir/sid/icd-10-cm","version":"2022","code":"I63.019","display":"Cerebral infarction due to thrombosis of unspecified vertebral artery","userSelected":true}]},"rank":1}]},"request":{"method":"PUT","url":"Encounter/5c953f97b848462de0ae415e"}},{"fullUrl":"https://madie.cms.gov/ServiceRequest/5c953f97b848462de0ae4160","resource":{"resourceType":"ServiceRequest","id":"5c953f97b848462de0ae4160","meta":{"profile":["http://hl7.org/fhir/us/qicore/StructureDefinition/qicore-servicerequest"]},"status":"active","intent":"order","code":{"coding":[{"system":"http://snomed.info/sct","code":"133918004"}]},"subject":{"reference":"Patient/e73d1055-c564-4663-9af0-d3ccabeb49c8"},"authoredOn":"2025-09-30T08:00:00.000+00:00"},"request":{"method":"PUT","url":"ServiceRequest/5c953f97b848462de0ae4160"}},{"fullUrl":"https://madie.cms.gov/Coverage/5f2c53cf1c76ba5c99605792","resource":{"resourceType":"Coverage","id":"5f2c53cf1c76ba5c99605792","status":"active","beneficiary":{"reference":"Patient/e73d1055-c564-4663-9af0-d3ccabeb49c8"},"period":{"start":"1985-09-18T08:00:00.000Z"},"payor":[{"reference":"Organization/Org-123456"}]},"request":{"method":"PUT","url":"Coverage/5f2c53cf1c76ba5c99605792"}},{"fullUrl":"https://madie.cms.gov/Condition/ischemic-stroke-1965","resource":{"resourceType":"Condition","id":"ischemic-stroke-1965","meta":{"profile":["http://hl7.org/fhir/us/qicore/StructureDefinition/qicore-condition"]},"clinicalStatus":{"coding":[{"system":"http://terminology.hl7.org/CodeSystem/condition-clinical","code":"active"}]},"verificationStatus":{"coding":[{"system":"http://terminology.hl7.org/CodeSystem/condition-ver-status","code":"confirmed"}]},"category":[{"coding":[{"system":"http://terminology.hl7.org/CodeSystem/condition-category","code":"encounter-diagnosis","display":"Encounter Diagnosis"}]}],"code":{"coding":[{"system":"http://snomed.info/sct","version":"2021-09","code":"111297002","display":"Nonparalytic stroke (disorder)","userSelected":true}]},"subject":{"reference":"Patient/e73d1055-c564-4663-9af0-d3ccabeb49c8"},"recordedDate":"2025-10-13T08:00:00.000+00:00"},"request":{"method":"PUT","url":"Condition/ischemic-stroke-1965"}},{"fullUrl":"https://madie.cms.gov/Organization/123456","resource":{"resourceType":"Organization","id":"Org-123456","meta":{"profile":["http://hl7.org/fhir/us/qicore/StructureDefinition/qicore-organization"]},"identifier":[{"use":"temp","system":"urn:oid:2.16.840.1.113883.4.4","value":"21-3259825"}],"active":true,"type":[{"coding":[{"system":"http://terminology.hl7.org/CodeSystem/organization-type","code":"pay","display":"Payer"}]}],"name":"Blue Cross Blue Shield of Texas","telecom":[{"system":"phone","value":"(+1) 972-766-6900"}],"address":[{"use":"billing","type":"postal","line":["P.O. Box 660044"],"city":"Dallas","state":"TX","postalCode":"75266-0044","country":"USA"}]},"request":{"method":"PUT","url":"Organization/Org-123456"}},{"fullUrl":"https://madie.cms.gov/Practitioner/practitioner-123456","resource":{"resourceType":"Practitioner","id":"practitioner-123456","identifier":[{"system":"http://hl7.org/fhir/sid/us-npi","value":"123456"}],"name":[{"family":"Evil","prefix":["Dr"]}]},"request":{"method":"PUT","url":"Practitioner/practitioner-123456"}},{"fullUrl":"https://madie.cms.gov/MeasureReport/f728f066-9627-4922-9dfc-a2308084f59d","resource":{"resourceType":"MeasureReport","id":"f728f066-9627-4922-9dfc-a2308084f59d","meta":{"profile":["http://hl7.org/fhir/us/cqfmeasures/StructureDefinition/test-case-cqfm"]},"contained":[{"resourceType":"Parameters","id":"a373e85f-779e-4935-a439-543c9b64d38d-parameters","parameter":[{"name":"subject","valueString":"e73d1055-c564-4663-9af0-d3ccabeb49c8"}]}],"extension":[{"url":"http://hl7.org/fhir/us/cqfmeasures/StructureDefinition/cqfm-inputParameters","valueReference":{"reference":"#a373e85f-779e-4935-a439-543c9b64d38d-parameters"}},{"url":"http://hl7.org/fhir/us/cqfmeasures/StructureDefinition/cqfm-testCaseDescription","valueMarkdown":"Patient receives CMO during ED. ED ends 60 min before Obs start and Obs ends 60 min before  inpatient start.  Testing HospitalizationWithObservation function\n"}],"modifierExtension":[{"url":"http://hl7.org/fhir/us/cqfmeasures/StructureDefinition/cqfm-isTestCase","valueBoolean":true}],"status":"complete","type":"individual","measure":"https://madie.cms.gov/Measure/AnticoagulationTherapyforAtrialFibrillationFlutterFHIR","period":{"start":"2025-01-01","end":"2025-12-31"},"group":[{"population":[{"code":{"coding":[{"system":"http://terminology.hl7.org/CodeSystem/measure-population","code":"initial-population","display":"Initial Population"}]},"count":1},{"code":{"coding":[{"system":"http://terminology.hl7.org/CodeSystem/measure-population","code":"denominator","display":"Denominator"}]},"count":1},{"code":{"coding":[{"system":"http://terminology.hl7.org/CodeSystem/measure-population","code":"denominator-exclusion","display":"Denominator Exclusion"}]},"count":1},{"code":{"coding":[{"system":"http://terminology.hl7.org/CodeSystem/measure-population","code":"numerator","display":"Numerator"}]},"count":0},{"code":{"coding":[{"system":"http://terminology.hl7.org/CodeSystem/measure-population","code":"denominator-exception","display":"Denominator Exception"}]},"count":0}]}],"evaluatedResource":[{"reference":"Patient/e73d1055-c564-4663-9af0-d3ccabeb49c8"},{"reference":"Condition/5c953f97b848462de0ae415b"},{"reference":"Encounter/5c953f97b848462de0ae415c"},{"reference":"Encounter/5c953f97b848462de0ae415d"},{"reference":"Encounter/5c953f97b848462de0ae415e"},{"reference":"ServiceRequest/5c953f97b848462de0ae4160"},{"reference":"Coverage/5f2c53cf1c76ba5c99605792"},{"reference":"Condition/ischemic-stroke-1965"},{"reference":"Organization/Org-123456"},{"reference":"Practitioner/practitioner-123456"}]},"request":{"method":"PUT","url":"MeasureReport/f728f066-9627-4922-9dfc-a2308084f59d"}}]}