{
  "resourceType": "Bundle",
  "id": "63488db8276faeaef3125a40",
  "type": "transaction",
  "entry": [ {
    "fullUrl": "https://madie.cms.gov/Patient/e7fe7e58-11bb-40e0-a342-06333917105c",
    "resource": {
      "resourceType": "Patient",
      "id": "e7fe7e58-11bb-40e0-a342-06333917105c",
      "meta": {
        "profile": [ "http://hl7.org/fhir/us/qicore/StructureDefinition/qicore-patient" ]
      },
      "text": {
        "status": "generated",
        "div": "<div xmlns=\"http://www.w3.org/1999/xhtml\"><div class=\"hapiHeaderText\">ProcDelivStart1MinB4EncInpStart <b>IPPASS </b></div><table class=\"hapiPropertyTable\"><tbody><tr><td>Identifier</td><td>5c05b56286ceef6b3739c6d66e73a6f8be510476054eff3a61df4a6cad50439d</td></tr><tr><td>Date of birth</td><td><span>14 February 1985</span></td></tr></tbody></table></div>"
      },
      "extension": [ {
        "url": "http://hl7.org/fhir/us/core/StructureDefinition/us-core-race",
        "extension": [ {
          "url": "ombCategory",
          "valueCoding": {
            "system": "urn:oid:2.16.840.1.113883.6.238",
            "code": "1002-5",
            "display": "American Indian or Alaska Native",
            "userSelected": true
          }
        }, {
          "url": "text",
          "valueString": "American Indian or Alaska Native"
        }, {
          "url": "detailed",
          "valueCoding": {
            "system": "urn:oid:2.16.840.1.113883.6.238",
            "code": "1653-5",
            "display": "Tohono O'Odham"
          }
        } ]
      }, {
        "url": "http://hl7.org/fhir/us/core/StructureDefinition/us-core-ethnicity",
        "extension": [ {
          "url": "ombCategory",
          "valueCoding": {
            "system": "urn:oid:2.16.840.1.113883.6.238",
            "code": "2135-2",
            "display": "Hispanic or Latino",
            "userSelected": true
          }
        }, {
          "url": "text",
          "valueString": "Hispanic or Latino"
        }, {
          "url": "detailed",
          "valueCoding": {
            "system": "urn:oid:2.16.840.1.113883.6.238",
            "code": "2153-5",
            "display": "Mexican American Indian"
          }
        } ]
      } ],
      "identifier": [ {
        "type": {
          "coding": [ {
            "system": "http://terminology.hl7.org/CodeSystem/v2-0203",
            "code": "MR"
          } ]
        },
        "system": "https://bonnie-fhir.healthit.gov/",
        "value": "63488db8276faeaef3125a40"
      } ],
      "active": true,
      "name": [ {
        "use": "usual",
        "family": "IPFail",
        "given": [ "ProcDelivStart1MinB4EncInpStart" ]
      } ],
      "gender": "female",
      "birthDate": "1997-02-14"
    },
    "request": {
      "method": "POST",
      "url": "Patient/e7fe7e58-11bb-40e0-a342-06333917105c"
    }
  }, {
    "fullUrl": "https://madie.cms.gov/Encounter/5d014eb1b8484608723804fd",
    "resource": {
      "resourceType": "Encounter",
      "id": "5d014eb1b8484608723804fd",
      "meta": {
        "profile": [ "http://hl7.org/fhir/us/qicore/StructureDefinition/qicore-encounter" ]
      },
      "status": "finished",
      "class": {
        "system": "http://terminology.hl7.org/CodeSystem/v3-ActCode",
        "code": "IMP",
        "display": "inpatient encounter"
      },
      "type": [ {
        "coding": [ {
          "system": "http://snomed.info/sct",
          "code": "8715000"
        } ]
      } ],
      "subject": {
        "reference": "Patient/e7fe7e58-11bb-40e0-a342-06333917105c"
      },
      "period": {
        "start": "2025-11-28T08:00:00.000Z",
        "end": "2025-11-30T08:15:00.000Z"
      },
      "diagnosis": [ {
        "condition": {
          "reference": "Condition/Condition-2"
        },
        "use": {
          "coding": [ {
            "system": "http://snomed.info/sct",
            "code": "169826009",
            "display": "Delivery of Singleton"
          } ]
        }
      } ]
    },
    "request": {
      "method": "POST",
      "url": "Encounter/5d014eb1b8484608723804fd"
    }
  }, {
    "fullUrl": "https://madie.cms.gov/Coverage/5f5f9e441c76ba674bb03289",
    "resource": {
      "resourceType": "Coverage",
      "id": "5f5f9e441c76ba674bb03289",
      "status": "active",
      "beneficiary": {
        "reference": "Patient/e7fe7e58-11bb-40e0-a342-06333917105c"
      },
      "period": {
        "start": "1985-02-14T08:00:00.000Z"
      },
      "payor": [ {
        "reference": "Organization/123456"
      } ]
    },
    "request": {
      "method": "POST",
      "url": "Coverage/5f5f9e441c76ba674bb03289"
    }
  }, {
    "fullUrl": "https://madie.cms.gov/Procedure/5d014eb1b8484608723804fe",
    "resource": {
      "resourceType": "Procedure",
      "id": "5d014eb1b8484608723804fe",
      "meta": {
        "profile": [ "http://hl7.org/fhir/us/qicore/StructureDefinition/qicore-procedure" ]
      },
      "extension": [ {
        "url": "http://hl7.org/fhir/us/qicore/StructureDefinition/qicore-recorded",
        "valueDateTime": "2013-04-05T09:35:00-04:00"
      } ],
      "status": "completed",
      "code": {
        "coding": [ {
          "system": "http://www.cms.gov/Medicare/Coding/ICD10",
          "code": "10D00Z0",
          "userSelected": true
        } ]
      },
      "subject": {
        "reference": "Patient/e7fe7e58-11bb-40e0-a342-06333917105c"
      },
      "performedDateTime": "2025-11-28T07:59:00.000+00:00"
    },
    "request": {
      "method": "POST",
      "url": "Procedure/5d014eb1b8484608723804fe"
    }
  }, {
    "fullUrl": "https://madie.cms.gov/Organization/123456",
    "resource": {
      "resourceType": "Organization",
      "id": "123456",
      "meta": {
        "profile": [ "http://hl7.org/fhir/us/qicore/StructureDefinition/qicore-organization" ]
      },
      "identifier": [ {
        "use": "temp",
        "system": "urn:oid:2.16.840.1.113883.4.4",
        "value": "21-3259825"
      } ],
      "active": true,
      "type": [ {
        "coding": [ {
          "system": "http://terminology.hl7.org/CodeSystem/organization-type",
          "code": "pay",
          "display": "Payer"
        } ]
      } ],
      "name": "Blue Cross Blue Shield of Texas",
      "telecom": [ {
        "system": "phone",
        "value": "(+1) 972-766-6900"
      } ],
      "address": [ {
        "use": "billing",
        "type": "postal",
        "line": [ "P.O. Box 660044" ],
        "city": "Dallas",
        "state": "TX",
        "postalCode": "75266-0044",
        "country": "USA"
      } ]
    },
    "request": {
      "method": "POST",
      "url": "Organization/123456"
    }
  }, {
    "fullUrl": "https://madie.cms.gov/Practitioner/practitioner-123456",
    "resource": {
      "resourceType": "Practitioner",
      "id": "practitioner-123456",
      "identifier": [ {
        "system": "http://hl7.org/fhir/sid/us-npi",
        "value": "123456"
      } ],
      "name": [ {
        "family": "Evil",
        "prefix": [ "Dr" ]
      } ]
    },
    "request": {
      "method": "POST",
      "url": "Practitioner/practitioner-123456"
    }
  }, {
    "fullUrl": "https://madie.cms.gov/MeasureReport/12f525da-8875-43d1-965a-9b32aa103855",
    "resource": {
      "resourceType": "MeasureReport",
      "id": "12f525da-8875-43d1-965a-9b32aa103855",
      "meta": {
        "profile": [ "http://hl7.org/fhir/us/cqfmeasures/StructureDefinition/test-case-cqfm" ]
      },
      "contained": [ {
        "resourceType": "Parameters",
        "id": "3f47b3a8-cf82-4779-817c-b01681cb359e-parameters",
        "parameter": [ {
          "name": "subject",
          "valueString": "e7fe7e58-11bb-40e0-a342-06333917105c"
        } ]
      } ],
      "extension": [ {
        "url": "http://hl7.org/fhir/us/cqfmeasures/StructureDefinition/cqfm-inputParameters",
        "valueReference": {
          "reference": "#3f47b3a8-cf82-4779-817c-b01681cb359e-parameters"
        }
      }, {
        "url": "http://hl7.org/fhir/us/cqfmeasures/StructureDefinition/cqfm-testCaseDescription",
        "valueMarkdown": "Fails IP: Proc Deliv Start 1 minute before Enc Inp Start.\n"
      } ],
      "modifierExtension": [ {
        "url": "http://hl7.org/fhir/us/cqfmeasures/StructureDefinition/cqfm-isTestCase",
        "valueBoolean": true
      } ],
      "status": "complete",
      "type": "individual",
      "measure": "https://madie.cms.gov/Measure/CesareanBirthFHIR",
      "period": {
        "start": "2025-01-01",
        "end": "2025-12-31"
      },
      "group": [ {
        "population": [ {
          "code": {
            "coding": [ {
              "system": "http://terminology.hl7.org/CodeSystem/measure-population",
              "code": "initial-population",
              "display": "Initial Population"
            } ]
          },
          "count": 0
        }, {
          "code": {
            "coding": [ {
              "system": "http://terminology.hl7.org/CodeSystem/measure-population",
              "code": "denominator",
              "display": "Denominator"
            } ]
          },
          "count": 0
        }, {
          "code": {
            "coding": [ {
              "system": "http://terminology.hl7.org/CodeSystem/measure-population",
              "code": "denominator-exclusion",
              "display": "Denominator Exclusion"
            } ]
          },
          "count": 0
        }, {
          "code": {
            "coding": [ {
              "system": "http://terminology.hl7.org/CodeSystem/measure-population",
              "code": "numerator",
              "display": "Numerator"
            } ]
          },
          "count": 0
        } ]
      } ],
      "evaluatedResource": [ {
        "reference": "https://madie.cms.gov/Patient/e7fe7e58-11bb-40e0-a342-06333917105c"
      }, {
        "reference": "https://madie.cms.gov/Encounter/5d014eb1b8484608723804fd"
      }, {
        "reference": "https://madie.cms.gov/Coverage/5f5f9e441c76ba674bb03289"
      }, {
        "reference": "https://madie.cms.gov/Procedure/5d014eb1b8484608723804fe"
      }, {
        "reference": "https://madie.cms.gov/Organization/123456"
      }, {
        "reference": "https://madie.cms.gov/Practitioner/practitioner-123456"
      } ]
    },
    "request": {
      "method": "POST",
      "url": "MeasureReport/12f525da-8875-43d1-965a-9b32aa103855"
    }
  } ]
}