{
  "resourceType": "Bundle",
  "id": "63ec09a3ccb3770120fea8f3",
  "type": "transaction",
  "entry": [ {
    "fullUrl": "https://madie.cms.gov/Patient/54150016-594d-4755-9a95-be91f761d2b1",
    "resource": {
      "resourceType": "Patient",
      "id": "54150016-594d-4755-9a95-be91f761d2b1",
      "meta": {
        "profile": [ "http://hl7.org/fhir/us/qicore/StructureDefinition/qicore-patient" ]
      },
      "text": {
        "status": "generated",
        "div": "<div xmlns=\"http://www.w3.org/1999/xhtml\"><div class=\"hapiHeaderText\">LT2after <b>RRPASS </b></div><table class=\"hapiPropertyTable\"><tbody><tr><td>Identifier</td><td>255c69b90792c6b49f464a750b8b3908d6105383eddce30893f29f67a89ffca6</td></tr><tr><td>Date of birth</td><td><span>15 June 1947</span></td></tr></tbody></table></div>"
      },
      "extension": [ {
        "url": "http://hl7.org/fhir/us/core/StructureDefinition/us-core-race",
        "extension": [ {
          "url": "ombCategory",
          "valueCoding": {
            "system": "urn:oid:2.16.840.1.113883.6.238",
            "code": "2106-3",
            "display": "White",
            "userSelected": true
          }
        }, {
          "url": "text",
          "valueString": "White"
        } ]
      }, {
        "url": "http://hl7.org/fhir/us/core/StructureDefinition/us-core-ethnicity",
        "extension": [ {
          "url": "ombCategory",
          "valueCoding": {
            "system": "urn:oid:2.16.840.1.113883.6.238",
            "code": "2186-5",
            "display": "Not Hispanic or Latino",
            "userSelected": true
          }
        }, {
          "url": "text",
          "valueString": "Not Hispanic or Latino"
        } ]
      } ],
      "identifier": [ {
        "type": {
          "coding": [ {
            "system": "http://terminology.hl7.org/CodeSystem/v2-0203",
            "code": "MR"
          } ]
        },
        "system": "https://bonnie-fhir.healthit.gov/",
        "value": "63ec09a3ccb3770120fea8f3"
      } ],
      "active": true,
      "name": [ {
        "use": "usual",
        "family": "RespiratoryRatePass",
        "given": [ "2EncsRespRate1Hr59MinAfter2ndEncStart" ]
      } ],
      "gender": "female",
      "birthDate": "1947-06-15"
    },
    "request": {
      "method": "PUT",
      "url": "Patient/54150016-594d-4755-9a95-be91f761d2b1"
    }
  }, {
    "fullUrl": "https://madie.cms.gov/Coverage/5f99692fb977ef0000c02d22",
    "resource": {
      "resourceType": "Coverage",
      "id": "5f99692fb977ef0000c02d22",
      "meta": {
        "profile": [ "http://hl7.org/fhir/us/qicore/StructureDefinition/qicore-coverage" ]
      },
      "status": "active",
      "type": {
        "coding": [ {
          "system": "https://nahdo.org/sopt",
          "version": "1.0.1",
          "code": "1",
          "display": "Medicare payer",
          "userSelected": true
        } ]
      },
      "policyHolder": {
        "reference": "Patient/54150016-594d-4755-9a95-be91f761d2b1"
      },
      "beneficiary": {
        "reference": "Patient/54150016-594d-4755-9a95-be91f761d2b1"
      },
      "dependent": "0",
      "relationship": {
        "coding": [ {
          "system": "http://terminology.hl7.org/CodeSystem/subscriber-relationship",
          "code": "self"
        } ]
      },
      "period": {
        "start": "2025-07-01T06:00:00.000Z",
        "end": "2025-09-01T11:06:01.000Z"
      },
      "payor": [ {
        "reference": "Organization/Org-123456"
      } ]
    },
    "request": {
      "method": "PUT",
      "url": "Coverage/5f99692fb977ef0000c02d22"
    }
  }, {
    "fullUrl": "https://madie.cms.gov/Encounter/5dc2db4f831f330000d74219",
    "resource": {
      "resourceType": "Encounter",
      "id": "5dc2db4f831f330000d74219",
      "meta": {
        "profile": [ "http://hl7.org/fhir/us/qicore/StructureDefinition/qicore-encounter" ]
      },
      "status": "finished",
      "class": {
        "system": "http://terminology.hl7.org/CodeSystem/v3-ActCode",
        "code": "ACUTE",
        "display": "Acute",
        "userSelected": true
      },
      "type": [ {
        "coding": [ {
          "system": "http://snomed.info/sct",
          "code": "183452005"
        } ]
      } ],
      "subject": {
        "reference": "Patient/54150016-594d-4755-9a95-be91f761d2b1"
      },
      "period": {
        "start": "2025-08-21T08:00:00.000+00:00",
        "end": "2025-08-22T08:15:00.000+00:00"
      }
    },
    "request": {
      "method": "PUT",
      "url": "Encounter/5dc2db4f831f330000d74219"
    }
  }, {
    "fullUrl": "https://madie.cms.gov/Observation/5b7c5511b84846299c81a50f",
    "resource": {
      "resourceType": "Observation",
      "id": "5b7c5511b84846299c81a50f",
      "meta": {
        "profile": [ "http://hl7.org/fhir/StructureDefinition/resprate" ]
      },
      "status": "final",
      "category": [ {
        "coding": [ {
          "system": "http://terminology.hl7.org/CodeSystem/observation-category",
          "code": "vital-signs",
          "display": "Vital Signs",
          "userSelected": true
        } ]
      } ],
      "code": {
        "coding": [ {
          "system": "http://loinc.org",
          "code": "9279-1",
          "display": "Respiratory rate"
        } ]
      },
      "subject": {
        "reference": "Patient/54150016-594d-4755-9a95-be91f761d2b1"
      },
      "effectiveDateTime": "2025-08-21T09:59:00.000+00:00",
      "issued": "2025-08-21T09:59:00.000Z",
      "valueQuantity": {
        "value": 16.0,
        "unit": "/min",
        "system": "http://unitsofmeasure.org",
        "code": "/min"
      }
    },
    "request": {
      "method": "PUT",
      "url": "Observation/5b7c5511b84846299c81a50f"
    }
  }, {
    "fullUrl": "https://madie.cms.gov/Organization/123456",
    "resource": {
      "resourceType": "Organization",
      "id": "Org-123456",
      "meta": {
        "profile": [ "http://hl7.org/fhir/us/qicore/StructureDefinition/qicore-organization" ]
      },
      "identifier": [ {
        "use": "temp",
        "system": "urn:oid:2.16.840.1.113883.4.4",
        "value": "21-3259825"
      } ],
      "active": true,
      "type": [ {
        "coding": [ {
          "system": "http://terminology.hl7.org/CodeSystem/organization-type",
          "code": "pay",
          "display": "Payer"
        } ]
      } ],
      "name": "Blue Cross Blue Shield of Texas",
      "telecom": [ {
        "system": "phone",
        "value": "(+1) 972-766-6900"
      } ],
      "address": [ {
        "use": "billing",
        "type": "postal",
        "line": [ "P.O. Box 660044" ],
        "city": "Dallas",
        "state": "TX",
        "postalCode": "75266-0044",
        "country": "USA"
      } ]
    },
    "request": {
      "method": "PUT",
      "url": "Organization/Org-123456"
    }
  }, {
    "fullUrl": "https://madie.cms.gov/Practitioner/practitioner-123456",
    "resource": {
      "resourceType": "Practitioner",
      "id": "practitioner-123456",
      "meta": {
        "profile": [ "http://hl7.org/fhir/us/qicore/StructureDefinition/qicore-practitioner" ]
      },
      "identifier": [ {
        "system": "http://hl7.org/fhir/sid/us-npi",
        "value": "123456"
      } ],
      "name": [ {
        "family": "Evil",
        "prefix": [ "Dr" ]
      } ]
    },
    "request": {
      "method": "PUT",
      "url": "Practitioner/practitioner-123456"
    }
  }, {
    "fullUrl": "https://madie.cms.gov/MeasureReport/fb6a1dcc-58a8-46c2-9946-1b936a0fdfe2",
    "resource": {
      "resourceType": "MeasureReport",
      "id": "fb6a1dcc-58a8-46c2-9946-1b936a0fdfe2",
      "meta": {
        "profile": [ "http://hl7.org/fhir/us/cqfmeasures/StructureDefinition/test-case-cqfm" ]
      },
      "contained": [ {
        "resourceType": "Parameters",
        "id": "53699499-9e6e-4785-bbbd-385964df4cff-parameters",
        "parameter": [ {
          "name": "subject",
          "valueString": "54150016-594d-4755-9a95-be91f761d2b1"
        } ]
      } ],
      "extension": [ {
        "url": "http://hl7.org/fhir/us/cqfmeasures/StructureDefinition/cqfm-inputParameters",
        "valueReference": {
          "reference": "#53699499-9e6e-4785-bbbd-385964df4cff-parameters"
        }
      }, {
        "url": "http://hl7.org/fhir/us/cqfmeasures/StructureDefinition/cqfm-testCaseDescription",
        "valueMarkdown": "Patient has 2 encounters.  Resp rate 1hr, 59min after beginning of 2nd encounter. \n "
      } ],
      "modifierExtension": [ {
        "url": "http://hl7.org/fhir/us/cqfmeasures/StructureDefinition/cqfm-isTestCase",
        "valueBoolean": true
      } ],
      "status": "complete",
      "type": "individual",
      "measure": "https://madie.cms.gov/Measure/HybridHospitalWideReadmissionFHIR",
      "period": {
        "start": "2025-07-01",
        "end": "2026-06-30"
      },
      "group": [ {
        "population": [ {
          "code": {
            "coding": [ {
              "system": "http://terminology.hl7.org/CodeSystem/measure-population",
              "code": "initial-population",
              "display": "Initial Population"
            } ]
          },
          "count": 1
        } ]
      } ],
      "evaluatedResource": [ {
        "reference": "Patient/54150016-594d-4755-9a95-be91f761d2b1"
      }, {
        "reference": "Coverage/5f99692fb977ef0000c02d22"
      }, {
        "reference": "Encounter/5dc2db4f831f330000d74219"
      }, {
        "reference": "Observation/5b7c5511b84846299c81a50f"
      }, {
        "reference": "Organization/Org-123456"
      }, {
        "reference": "Practitioner/practitioner-123456"
      } ]
    },
    "request": {
      "method": "PUT",
      "url": "MeasureReport/fb6a1dcc-58a8-46c2-9946-1b936a0fdfe2"
    }
  } ]
}