{
  "resourceType": "Bundle",
  "id": "tests--6ea819cf-ad33-424b-9d33-f5a6e67755e0--bundle",
  "type": "transaction",
  "entry": [ {
    "fullUrl": "https://madie.cms.gov/Patient/6ea819cf-ad33-424b-9d33-f5a6e67755e0",
    "resource": {
      "resourceType": "Patient",
      "id": "6ea819cf-ad33-424b-9d33-f5a6e67755e0",
      "meta": {
        "profile": [ "http://hl7.org/fhir/us/qicore/StructureDefinition/qicore-patient" ]
      },
      "extension": [ {
        "url": "http://hl7.org/fhir/us/core/StructureDefinition/us-core-race",
        "extension": [ {
          "url": "ombCategory",
          "valueCoding": {
            "system": "urn:oid:2.16.840.1.113883.6.238",
            "code": "2054-5",
            "display": "Black or African American"
          }
        }, {
          "url": "text",
          "valueString": "Black or African American"
        } ]
      }, {
        "url": "http://hl7.org/fhir/us/core/StructureDefinition/us-core-ethnicity",
        "extension": [ {
          "url": "ombCategory",
          "valueCoding": {
            "system": "urn:oid:2.16.840.1.113883.6.238",
            "code": "2186-5",
            "display": "Not Hispanic or Latino"
          }
        }, {
          "url": "text",
          "valueString": "Not Hispanic or Latino"
        } ]
      } ],
      "identifier": [ {
        "type": {
          "coding": [ {
            "system": "http://terminology.hl7.org/CodeSystem/v2-0203",
            "code": "MR"
          } ]
        },
        "system": "https://bonnie-fhir.healthit.gov/",
        "value": "1313143543131"
      } ],
      "active": true,
      "name": [ {
        "use": "usual",
        "family": "DENEXCEPFail",
        "given": [ "ArrhythmiaAfterLastEnc" ]
      } ],
      "gender": "male",
      "birthDate": "1947-02-03"
    },
    "request": {
      "method": "PUT",
      "url": "Patient/6ea819cf-ad33-424b-9d33-f5a6e67755e0"
    }
  }, {
    "fullUrl": "https://madie.cms.gov/Encounter/9648631313463",
    "resource": {
      "resourceType": "Encounter",
      "id": "9648631313463",
      "meta": {
        "profile": [ "http://hl7.org/fhir/us/qicore/StructureDefinition/qicore-encounter" ]
      },
      "status": "finished",
      "class": {
        "system": "http://terminology.hl7.org/CodeSystem/v3-ActCode",
        "code": "AMB",
        "display": "ambulatory"
      },
      "type": [ {
        "coding": [ {
          "system": "http://www.ama-assn.org/go/cpt",
          "version": "2023",
          "code": "99213"
        } ]
      } ],
      "subject": {
        "reference": "Patient/6ea819cf-ad33-424b-9d33-f5a6e67755e0"
      },
      "period": {
        "start": "2025-05-25T14:20:00.000+00:00",
        "end": "2025-05-25T14:40:00.000+00:00"
      }
    },
    "request": {
      "method": "PUT",
      "url": "Encounter/9648631313463"
    }
  }, {
    "fullUrl": "https://madie.cms.gov/Encounter/6463131343",
    "resource": {
      "resourceType": "Encounter",
      "id": "6463131343",
      "meta": {
        "profile": [ "http://hl7.org/fhir/us/qicore/StructureDefinition/qicore-encounter" ]
      },
      "status": "finished",
      "class": {
        "system": "http://terminology.hl7.org/CodeSystem/v3-ActCode",
        "code": "AMB",
        "display": "ambulatory"
      },
      "type": [ {
        "coding": [ {
          "system": "http://www.ama-assn.org/go/cpt",
          "version": "2023",
          "code": "99212"
        } ]
      } ],
      "subject": {
        "reference": "Patient/6ea819cf-ad33-424b-9d33-f5a6e67755e0"
      },
      "period": {
        "start": "2025-09-05T23:30:00.000+00:00",
        "end": "2025-09-06T11:50:00.000+00:00"
      }
    },
    "request": {
      "method": "PUT",
      "url": "Encounter/6463131343"
    }
  }, {
    "fullUrl": "https://madie.cms.gov/Condition/341313135131",
    "resource": {
      "resourceType": "Condition",
      "id": "341313135131",
      "meta": {
        "profile": [ "http://hl7.org/fhir/us/qicore/StructureDefinition/qicore-condition" ]
      },
      "clinicalStatus": {
        "coding": [ {
          "system": "http://terminology.hl7.org/CodeSystem/condition-clinical",
          "code": "active",
          "display": "active"
        } ]
      },
      "verificationStatus": {
        "coding": [ {
          "system": "http://terminology.hl7.org/CodeSystem/condition-ver-status",
          "code": "confirmed",
          "display": "Confirmed"
        } ]
      },
      "category": [ {
        "coding": [ {
          "system": "http://terminology.hl7.org/CodeSystem/condition-category",
          "code": "problem-list-item",
          "display": "problem list item"
        } ]
      } ],
      "code": {
        "coding": [ {
          "system": "http://snomed.info/sct",
          "version": "http://snomed.info/sct/731000124108/version/202303",
          "code": "364006"
        } ]
      },
      "subject": {
        "reference": "Patient/6ea819cf-ad33-424b-9d33-f5a6e67755e0"
      },
      "onsetPeriod": {
        "start": "2025-06-27T10:00:00.000+00:00"
      }
    },
    "request": {
      "method": "PUT",
      "url": "Condition/341313135131"
    }
  }, {
    "fullUrl": "https://madie.cms.gov/Condition/541641313161",
    "resource": {
      "resourceType": "Condition",
      "id": "541641313161",
      "meta": {
        "profile": [ "http://hl7.org/fhir/us/qicore/StructureDefinition/qicore-condition" ]
      },
      "clinicalStatus": {
        "coding": [ {
          "system": "http://terminology.hl7.org/CodeSystem/condition-clinical",
          "code": "active",
          "display": "active"
        } ]
      },
      "category": [ {
        "coding": [ {
          "system": "http://terminology.hl7.org/CodeSystem/condition-category",
          "code": "problem-list-item",
          "display": "problem list item"
        } ]
      } ],
      "severity": {
        "coding": [ {
          "system": "http://snomed.info/sct",
          "version": "http://snomed.info/sct/731000124108/version/202303",
          "code": "24484000",
          "display": "Severe (severity modifier) (qualifier value)"
        } ]
      },
      "code": {
        "coding": [ {
          "system": "http://snomed.info/sct",
          "version": "http://snomed.info/sct/731000124108/version/202303",
          "code": "134401001",
          "display": "Left ventricular systolic dysfunction (disorder)"
        } ]
      },
      "subject": {
        "reference": "Patient/6ea819cf-ad33-424b-9d33-f5a6e67755e0"
      },
      "onsetPeriod": {
        "start": "2025-08-11T23:50:00+00:00"
      }
    },
    "request": {
      "method": "PUT",
      "url": "Condition/541641313161"
    }
  }, {
    "fullUrl": "https://madie.cms.gov/Observation/461316316313",
    "resource": {
      "resourceType": "Observation",
      "id": "461316316313",
      "meta": {
        "profile": [ "http://hl7.org/fhir/StructureDefinition/heartrate" ]
      },
      "status": "final",
      "category": [ {
        "coding": [ {
          "system": "http://terminology.hl7.org/CodeSystem/observation-category",
          "code": "imaging",
          "display": "Imaging"
        } ]
      }, {
        "coding": [ {
          "system": "http://terminology.hl7.org/CodeSystem/observation-category",
          "code": "vital-signs",
          "display": "Vital signs"
        } ]
      } ],
      "code": {
        "coding": [ {
          "system": "http://loinc.org",
          "version": "2.73",
          "code": "8867-4"
        } ]
      },
      "subject": {
        "reference": "Patient/6ea819cf-ad33-424b-9d33-f5a6e67755e0"
      },
      "effectiveDateTime": "2025-09-05T11:50:00.000+00:00",
      "valueQuantity": {
        "value": 30,
        "unit": "/min",
        "system": "http://unitsofmeasure.org",
        "code": "/min"
      }
    },
    "request": {
      "method": "PUT",
      "url": "Observation/461316316313"
    }
  }, {
    "fullUrl": "https://madie.cms.gov/MeasureReport/e5a19913-c1b8-445f-82d6-16e2eaeeb57f",
    "resource": {
      "resourceType": "MeasureReport",
      "id": "e5a19913-c1b8-445f-82d6-16e2eaeeb57f",
      "meta": {
        "profile": [ "http://hl7.org/fhir/us/cqfmeasures/StructureDefinition/test-case-cqfm" ]
      },
      "contained": [ {
        "resourceType": "Parameters",
        "id": "4c076173-ce69-4390-bf09-2e40d9644c85-parameters",
        "parameter": [ {
          "name": "subject",
          "valueString": "6ea819cf-ad33-424b-9d33-f5a6e67755e0"
        } ]
      } ],
      "extension": [ {
        "url": "http://hl7.org/fhir/us/cqfmeasures/StructureDefinition/cqfm-inputParameters",
        "valueReference": {
          "reference": "#4c076173-ce69-4390-bf09-2e40d9644c85-parameters"
        }
      }, {
        "url": "http://hl7.org/fhir/us/cqfmeasures/StructureDefinition/cqfm-testCaseDescription",
        "valueMarkdown": "Patient with arrhythmia starting after last encounter in measurement period. Patient not excepted due to arrhythmia diagnosis after encounter."
      } ],
      "modifierExtension": [ {
        "url": "http://hl7.org/fhir/us/cqfmeasures/StructureDefinition/cqfm-isTestCase",
        "valueBoolean": true
      } ],
      "status": "complete",
      "type": "individual",
      "measure": "https://madie.cms.gov/Measure/HFBetaBlockerTherapyforLVSDFHIR",
      "period": {
        "start": "2025-01-01",
        "end": "2025-12-31"
      },
      "group": [ {
        "population": [ {
          "code": {
            "coding": [ {
              "system": "http://terminology.hl7.org/CodeSystem/measure-population",
              "code": "initial-population",
              "display": "Initial Population"
            } ]
          },
          "count": 1
        }, {
          "code": {
            "coding": [ {
              "system": "http://terminology.hl7.org/CodeSystem/measure-population",
              "code": "denominator",
              "display": "Denominator"
            } ]
          },
          "count": 1
        }, {
          "code": {
            "coding": [ {
              "system": "http://terminology.hl7.org/CodeSystem/measure-population",
              "code": "denominator-exclusion",
              "display": "Denominator Exclusion"
            } ]
          },
          "count": 0
        }, {
          "code": {
            "coding": [ {
              "system": "http://terminology.hl7.org/CodeSystem/measure-population",
              "code": "numerator",
              "display": "Numerator"
            } ]
          },
          "count": 0
        }, {
          "code": {
            "coding": [ {
              "system": "http://terminology.hl7.org/CodeSystem/measure-population",
              "code": "denominator-exception",
              "display": "Denominator Exception"
            } ]
          },
          "count": 0
        } ]
      } ],
      "evaluatedResource": [ {
        "reference": "Patient/6ea819cf-ad33-424b-9d33-f5a6e67755e0"
      }, {
        "reference": "Encounter/9648631313463"
      }, {
        "reference": "Encounter/6463131343"
      }, {
        "reference": "Condition/341313135131"
      }, {
        "reference": "Condition/541641313161"
      }, {
        "reference": "Observation/461316316313"
      } ]
    },
    "request": {
      "method": "PUT",
      "url": "MeasureReport/e5a19913-c1b8-445f-82d6-16e2eaeeb57f"
    }
  } ]
}
