{"resourceType":"Bundle","id":"tests-3c19e09f-708b-4fa5-a9ee-08371cec24ca-bundle","type":"transaction","entry":[{"fullUrl":"https://madie.cms.gov/Patient/3c19e09f-708b-4fa5-a9ee-08371cec24ca","resource":{"resourceType":"Patient","id":"3c19e09f-708b-4fa5-a9ee-08371cec24ca","meta":{"profile":["http://hl7.org/fhir/us/qicore/StructureDefinition/qicore-patient"]},"extension":[{"url":"http://hl7.org/fhir/us/core/StructureDefinition/us-core-race","extension":[{"url":"ombCategory","valueCoding":{"system":"urn:oid:2.16.840.1.113883.6.238","code":"2054-5","display":"Black or African American"}},{"url":"text","valueString":"Black or African American"}]},{"url":"http://hl7.org/fhir/us/core/StructureDefinition/us-core-ethnicity","extension":[{"url":"ombCategory","valueCoding":{"system":"urn:oid:2.16.840.1.113883.6.238","code":"2186-5","display":"Not Hispanic or Latino"}},{"url":"text","valueString":"Not Hispanic or Latino"}]}],"identifier":[{"type":{"coding":[{"system":"http://terminology.hl7.org/CodeSystem/v2-0203","code":"MR"}]},"system":"https://bonnie-fhir.healthit.gov/","value":"1351313131"}],"active":true,"name":[{"use":"usual","family":"DENEXCEPFail","given":["ArrhythmiaEnteredInError"]}],"gender":"male","birthDate":"1947-02-03"},"request":{"method":"PUT","url":"Patient/3c19e09f-708b-4fa5-a9ee-08371cec24ca"}},{"fullUrl":"https://madie.cms.gov/Encounter/4643513434","resource":{"resourceType":"Encounter","id":"4d9baf1f-5469-41dc-a174-8226714c1d5c","meta":{"profile":["http://hl7.org/fhir/us/qicore/StructureDefinition/qicore-encounter"]},"status":"finished","class":{"system":"http://terminology.hl7.org/CodeSystem/v3-ActCode","code":"AMB","display":"ambulatory"},"type":[{"coding":[{"system":"http://www.ama-assn.org/go/cpt","version":"2024","code":"99213"}]}],"subject":{"reference":"Patient/3c19e09f-708b-4fa5-a9ee-08371cec24ca"},"period":{"start":"2025-05-25T14:20:00.000+00:00","end":"2025-05-25T14:40:00.000+00:00"}},"request":{"method":"PUT","url":"Encounter/4d9baf1f-5469-41dc-a174-8226714c1d5c"}},{"fullUrl":"https://madie.cms.gov/Encounter/546313131631","resource":{"resourceType":"Encounter","id":"8b0a5f9a-7324-43b6-b99c-08db9244b3f2","meta":{"profile":["http://hl7.org/fhir/us/qicore/StructureDefinition/qicore-encounter"]},"status":"finished","class":{"system":"http://terminology.hl7.org/CodeSystem/v3-ActCode","code":"AMB","display":"ambulatory"},"type":[{"coding":[{"system":"http://www.ama-assn.org/go/cpt","version":"2024","code":"99212"}]}],"subject":{"reference":"Patient/3c19e09f-708b-4fa5-a9ee-08371cec24ca"},"period":{"start":"2025-09-05T15:30:00.000+00:00","end":"2025-09-05T15:50:00.000+00:00"}},"request":{"method":"PUT","url":"Encounter/8b0a5f9a-7324-43b6-b99c-08db9244b3f2"}},{"fullUrl":"https://madie.cms.gov/Condition/1316343131","resource":{"resourceType":"Condition","id":"c39dd0a7-accd-4a8b-a7e6-d6c72ebaa1ef","meta":{"profile":["http://hl7.org/fhir/us/qicore/StructureDefinition/qicore-condition"]},"clinicalStatus":{"coding":[{"system":"http://terminology.hl7.org/CodeSystem/condition-clinical","code":"active","display":"active"}]},"verificationStatus":{"coding":[{"system":"http://terminology.hl7.org/CodeSystem/condition-ver-status","code":"confirmed","display":"Confirmed"}]},"category":[{"coding":[{"system":"http://terminology.hl7.org/CodeSystem/condition-category","code":"problem-list-item","display":"problem list item"}]}],"code":{"coding":[{"system":"http://snomed.info/sct","version":"http://snomed.info/sct/731000124108/version/20240301","code":"364006"}]},"subject":{"reference":"Patient/3c19e09f-708b-4fa5-a9ee-08371cec24ca"},"onsetPeriod":{"start":"2025-06-27T10:00:00.000+00:00"}},"request":{"method":"PUT","url":"Condition/c39dd0a7-accd-4a8b-a7e6-d6c72ebaa1ef"}},{"fullUrl":"https://madie.cms.gov/Condition/9873131313","resource":{"resourceType":"Condition","id":"27a9b477-6d25-4b64-8b07-eaf8e0cbfab4","meta":{"profile":["http://hl7.org/fhir/us/qicore/StructureDefinition/qicore-condition"]},"clinicalStatus":{"coding":[{"system":"http://terminology.hl7.org/CodeSystem/condition-clinical","code":"active","display":"active"}]},"verificationStatus":{"coding":[{"system":"http://terminology.hl7.org/CodeSystem/condition-ver-status","code":"confirmed","display":"Confirmed"}]},"category":[{"coding":[{"system":"http://terminology.hl7.org/CodeSystem/condition-category","code":"problem-list-item","display":"problem list item"}]}],"severity":{"coding":[{"system":"http://snomed.info/sct","version":"http://snomed.info/sct/731000124108/version/20240301","code":"24484000","display":"Severe (severity modifier) (qualifier value)"}]},"code":{"coding":[{"system":"http://snomed.info/sct","version":"http://snomed.info/sct/731000124108/version/20240301","code":"134401001","display":"Left ventricular systolic dysfunction (disorder)"}]},"subject":{"reference":"Patient/3c19e09f-708b-4fa5-a9ee-08371cec24ca"},"onsetPeriod":{"start":"2025-08-11T23:50:00+00:00"}},"request":{"method":"PUT","url":"Condition/27a9b477-6d25-4b64-8b07-eaf8e0cbfab4"}},{"fullUrl":"https://madie.cms.gov/Condition/1316345000","resource":{"resourceType":"Condition","id":"34d0dcd0-9f40-46e5-83ca-e17de799c8eb","meta":{"profile":["http://hl7.org/fhir/us/qicore/StructureDefinition/qicore-condition"]},"verificationStatus":{"coding":[{"system":"http://terminology.hl7.org/CodeSystem/condition-ver-status","code":"entered-in-error","display":"entered in error"}]},"category":[{"coding":[{"system":"http://terminology.hl7.org/CodeSystem/condition-category","code":"problem-list-item","display":"problem list item"}]}],"code":{"coding":[{"system":"http://snomed.info/sct","version":"http://snomed.info/sct/731000124108/version/20240301","code":"11849007","display":"Atrioventricular junctional rhythm (disorder)"}]},"subject":{"reference":"Patient/3c19e09f-708b-4fa5-a9ee-08371cec24ca"},"onsetPeriod":{"start":"2025-06-27T10:00:00.000+00:00"}},"request":{"method":"PUT","url":"Condition/34d0dcd0-9f40-46e5-83ca-e17de799c8eb"}},{"fullUrl":"https://madie.cms.gov/MeasureReport/c41848e3-0f08-4f83-9d04-5c4511b35838","resource":{"resourceType":"MeasureReport","id":"c41848e3-0f08-4f83-9d04-5c4511b35838","meta":{"profile":["http://hl7.org/fhir/us/cqfmeasures/StructureDefinition/test-case-cqfm"]},"contained":[{"resourceType":"Parameters","id":"791d4dbf-9763-4887-9977-d8ba3574ca7c-parameters","parameter":[{"name":"subject","valueString":"3c19e09f-708b-4fa5-a9ee-08371cec24ca"}]}],"extension":[{"url":"http://hl7.org/fhir/us/cqfmeasures/StructureDefinition/cqfm-inputParameters","valueReference":{"reference":"#791d4dbf-9763-4887-9977-d8ba3574ca7c-parameters"}},{"url":"http://hl7.org/fhir/us/cqfmeasures/StructureDefinition/cqfm-testCaseDescription","valueMarkdown":"Patient with arrhythmia entered in error"}],"modifierExtension":[{"url":"http://hl7.org/fhir/us/cqfmeasures/StructureDefinition/cqfm-isTestCase","valueBoolean":true}],"status":"complete","type":"individual","measure":"https://madie.cms.gov/Measure/HFBetaBlockerTherapyforLVSDFHIR","period":{"start":"2025-01-01","end":"2025-12-31"},"group":[{"population":[{"code":{"coding":[{"system":"http://terminology.hl7.org/CodeSystem/measure-population","code":"initial-population","display":"Initial Population"}]},"count":1},{"code":{"coding":[{"system":"http://terminology.hl7.org/CodeSystem/measure-population","code":"denominator","display":"Denominator"}]},"count":1},{"code":{"coding":[{"system":"http://terminology.hl7.org/CodeSystem/measure-population","code":"denominator-exclusion","display":"Denominator Exclusion"}]},"count":0},{"code":{"coding":[{"system":"http://terminology.hl7.org/CodeSystem/measure-population","code":"numerator","display":"Numerator"}]},"count":0},{"code":{"coding":[{"system":"http://terminology.hl7.org/CodeSystem/measure-population","code":"denominator-exception","display":"Denominator Exception"}]},"count":0}]}]},"request":{"method":"PUT","url":"MeasureReport/c41848e3-0f08-4f83-9d04-5c4511b35838"}}]}