{
  "resourceType": "Bundle",
  "id": "tests-851513e6-9e1f-496e-b8bb-33f140b20d5b-bundle",
  "type": "transaction",
  "entry": [ {
    "fullUrl": "https://madie.cms.gov/Patient/851513e6-9e1f-496e-b8bb-33f140b20d5b",
    "resource": {
      "resourceType": "Patient",
      "id": "851513e6-9e1f-496e-b8bb-33f140b20d5b",
      "meta": {
        "profile": [ "http://hl7.org/fhir/us/qicore/StructureDefinition/qicore-patient" ]
      },
      "extension": [ {
        "url": "http://hl7.org/fhir/us/core/StructureDefinition/us-core-race",
        "extension": [ {
          "url": "ombCategory",
          "valueCoding": {
            "system": "http://terminology.hl7.org/CodeSystem/v3-NullFlavor",
            "code": "UNK",
            "display": "unknown"
          }
        }, {
          "url": "text",
          "valueString": "unknown"
        } ]
      }, {
        "url": "http://hl7.org/fhir/us/core/StructureDefinition/us-core-ethnicity",
        "extension": [ {
          "url": "ombCategory",
          "valueCoding": {
            "system": "urn:oid:2.16.840.1.113883.6.238",
            "code": "2186-5",
            "display": "Not Hispanic or Latino"
          }
        }, {
          "url": "text",
          "valueString": "Not Hispanic or Latino"
        } ]
      } ],
      "identifier": [ {
        "type": {
          "coding": [ {
            "system": "http://terminology.hl7.org/CodeSystem/v2-0203",
            "code": "MR"
          } ]
        },
        "system": "https://bonnie-fhir.healthit.gov/",
        "value": "6543131313"
      } ],
      "active": true,
      "name": [ {
        "use": "usual",
        "family": "NUMERPass",
        "given": [ "PtHasActiveBetaBlocker" ]
      } ],
      "gender": "female",
      "birthDate": "1982-07-27"
    },
    "request": {
      "method": "PUT",
      "url": "Patient/851513e6-9e1f-496e-b8bb-33f140b20d5b"
    }
  }, {
    "fullUrl": "https://madie.cms.gov/Encounter/enc-64131313124162",
    "resource": {
      "resourceType": "Encounter",
      "id": "64131313124162",
      "meta": {
        "profile": [ "http://hl7.org/fhir/us/qicore/StructureDefinition/qicore-encounter" ]
      },
      "status": "finished",
      "class": {
        "system": "http://terminology.hl7.org/CodeSystem/v3-ActCode",
        "code": "AMB",
        "display": "ambulatory"
      },
      "type": [ {
        "coding": [ {
          "system": "http://www.ama-assn.org/go/cpt",
          "version": "2023",
          "code": "99213",
          "display": "Established patient office or other outpatient visit, 20-29 minutes"
        } ]
      } ],
      "subject": {
        "reference": "Patient/851513e6-9e1f-496e-b8bb-33f140b20d5b"
      },
      "period": {
        "start": "2025-02-27T14:40:00.000+00:00",
        "end": "2025-02-27T14:55:00.000+00:00"
      },
      "length": {
        "value": 0,
        "unit": "days"
      }
    },
    "request": {
      "method": "PUT",
      "url": "Encounter/enc-64131313124162"
    }
  }, {
    "fullUrl": "https://madie.cms.gov/Encounter/enc-35431313154",
    "resource": {
      "resourceType": "Encounter",
      "id": "35431313154",
      "meta": {
        "profile": [ "http://hl7.org/fhir/us/qicore/StructureDefinition/qicore-encounter" ]
      },
      "status": "finished",
      "class": {
        "system": "http://terminology.hl7.org/CodeSystem/v3-ActCode",
        "code": "AMB",
        "display": "ambulatory"
      },
      "type": [ {
        "coding": [ {
          "system": "http://www.ama-assn.org/go/cpt",
          "version": "2023",
          "code": "99212"
        } ]
      } ],
      "subject": {
        "reference": "Patient/851513e6-9e1f-496e-b8bb-33f140b20d5b"
      },
      "period": {
        "start": "2025-06-12T11:50:00+00:00",
        "end": "2025-06-12T12:00:00+00:00"
      },
      "length": {
        "value": 0,
        "unit": "days"
      }
    },
    "request": {
      "method": "PUT",
      "url": "Encounter/enc-35431313154"
    }
  }, {
    "fullUrl": "https://madie.cms.gov/Condition/con-986123131351",
    "resource": {
      "resourceType": "Condition",
      "id": "986123131351",
      "meta": {
        "profile": [ "http://hl7.org/fhir/us/qicore/StructureDefinition/qicore-condition" ]
      },
      "clinicalStatus": {
        "coding": [ {
          "system": "http://terminology.hl7.org/CodeSystem/condition-clinical",
          "code": "active",
          "display": "Active"
        } ]
      },
      "verificationStatus": {
        "coding": [ {
          "system": "http://terminology.hl7.org/CodeSystem/condition-ver-status",
          "code": "confirmed",
          "display": "Confirmed"
        } ]
      },
      "category": [ {
        "coding": [ {
          "system": "http://terminology.hl7.org/CodeSystem/condition-category",
          "code": "problem-list-item",
          "display": "problem list item"
        } ]
      } ],
      "code": {
        "coding": [ {
          "system": "http://hl7.org/fhir/sid/icd-10-cm",
          "version": "2023",
          "code": "I11.0",
          "display": "Hypertensive heart disease with heart failure"
        } ]
      },
      "subject": {
        "reference": "Patient/851513e6-9e1f-496e-b8bb-33f140b20d5b"
      },
      "onsetPeriod": {
        "start": "2025-02-22T14:40:00+00:00"
      }
    },
    "request": {
      "method": "PUT",
      "url": "Condition/con-986123131351"
    }
  }, {
    "fullUrl": "https://madie.cms.gov/Practitioner/prac-63431313131",
    "resource": {
      "resourceType": "Practitioner",
      "id": "63431313131",
      "meta": {
        "profile": [ "http://hl7.org/fhir/us/qicore/StructureDefinition/qicore-practitioner" ]
      },
      "identifier": [ {
        "use": "temp",
        "system": "urn:oid:2.16.840.1.113883.4.336",
        "value": "Practitioner-23"
      } ],
      "active": true,
      "name": [ {
        "family": "Careful",
        "given": [ "Adam" ],
        "prefix": [ "Dr" ]
      } ],
      "address": [ {
        "use": "home",
        "line": [ "534 Erewhon St" ],
        "city": "PleasantVille",
        "state": "UT",
        "postalCode": "84414"
      } ],
      "qualification": [ {
        "identifier": [ {
          "system": "http://example.org/UniversityIdentifier",
          "value": "12345"
        } ],
        "code": {
          "coding": [ {
            "system": "http://terminology.hl7.org/CodeSystem/v2-0360",
            "code": "BS",
            "display": "Bachelor of Science"
          } ],
          "text": "Bachelor of Science"
        },
        "period": {
          "start": "1995"
        },
        "issuer": {
          "display": "Example University"
        }
      } ]
    },
    "request": {
      "method": "PUT",
      "url": "Practitioner/prac-63431313131"
    }
  }, {
    "fullUrl": "https://madie.cms.gov/MedicationRequest/medreq-54631313131",
    "resource": {
      "resourceType": "MedicationRequest",
      "id": "54631313131",
      "meta": {
        "profile": [ "http://hl7.org/fhir/us/qicore/StructureDefinition/qicore-medicationrequest" ]
      },
      "status": "completed",
      "intent": "order",
      "medicationCodeableConcept": {
        "coding": [ {
          "system": "http://www.nlm.nih.gov/research/umls/rxnorm",
          "version": "03062023",
          "code": "200031"
        } ]
      },
      "subject": {
        "reference": "Patient/851513e6-9e1f-496e-b8bb-33f140b20d5b"
      },
      "authoredOn": "2025-06-12T14:57:00.000+00:00",
      "requester": {
        "reference": "Practitioner/prac-63431313131"
      },
      "dosageInstruction": [ {
        "timing": {
          "event": [ "2025-02-27T11:45:00+00:00" ],
          "repeat": {
            "boundsPeriod": {
              "start": "2025-02-27"
            },
            "frequency": 1,
            "period": 1,
            "periodUnit": "d"
          },
          "code": {
            "coding": [ {
              "system": "http://terminology.hl7.org/CodeSystem/v3-GTSAbbreviation",
              "code": "QD"
            } ]
          }
        },
        "route": {
          "coding": [ {
            "system": "http://snomed.info/sct",
            "code": "26643006",
            "display": "Oral use"
          } ]
        },
        "doseAndRate": [ {
          "doseQuantity": {
            "value": 4,
            "unit": "mg",
            "system": "http://unitsofmeasure.org",
            "code": "mg"
          }
        } ]
      } ]
    },
    "request": {
      "method": "PUT",
      "url": "MedicationRequest/medreq-54631313131"
    }
  }, {
    "fullUrl": "https://madie.cms.gov/Observation/obs-64643131351",
    "resource": {
      "resourceType": "Observation",
      "id": "64643131351",
      "meta": {
        "profile": [ "http://hl7.org/fhir/StructureDefinition/heartrate" ]
      },
      "status": "final",
      "category": [ {
        "coding": [ {
          "system": "http://terminology.hl7.org/CodeSystem/observation-category",
          "code": "vital-signs",
          "display": "Vital Signs"
        } ]
      } ],
      "code": {
        "coding": [ {
          "system": "http://loinc.org",
          "version": "2.73",
          "code": "8867-4"
        } ]
      },
      "subject": {
        "reference": "Patient/851513e6-9e1f-496e-b8bb-33f140b20d5b"
      },
      "effectiveDateTime": "2025-02-27T11:52:00+00:00",
      "valueQuantity": {
        "value": 45,
        "unit": "/min",
        "system": "http://unitsofmeasure.org",
        "code": "/min"
      }
    },
    "request": {
      "method": "PUT",
      "url": "Observation/obs-64643131351"
    }
  }, {
    "fullUrl": "https://madie.cms.gov/Observation/obs-68413131351341",
    "resource": {
      "resourceType": "Observation",
      "id": "68413131351341",
      "meta": {
        "profile": [ "http://hl7.org/fhir/StructureDefinition/heartrate" ]
      },
      "status": "final",
      "category": [ {
        "coding": [ {
          "system": "http://terminology.hl7.org/CodeSystem/observation-category",
          "code": "vital-signs",
          "display": "Vital Signs"
        } ]
      } ],
      "code": {
        "coding": [ {
          "system": "http://loinc.org",
          "version": "2.73",
          "code": "8867-4"
        } ]
      },
      "subject": {
        "reference": "Patient/851513e6-9e1f-496e-b8bb-33f140b20d5b"
      },
      "effectiveDateTime": "2025-02-27T14:45:00.000+00:00",
      "valueQuantity": {
        "value": 45,
        "unit": "/min",
        "system": "http://unitsofmeasure.org",
        "code": "/min"
      }
    },
    "request": {
      "method": "PUT",
      "url": "Observation/obs-68413131351341"
    }
  }, {
    "fullUrl": "https://madie.cms.gov/Condition/con-9687641313131",
    "resource": {
      "resourceType": "Condition",
      "id": "9687641313131",
      "meta": {
        "profile": [ "http://hl7.org/fhir/us/qicore/StructureDefinition/qicore-condition" ]
      },
      "clinicalStatus": {
        "coding": [ {
          "system": "http://terminology.hl7.org/CodeSystem/condition-clinical",
          "code": "active",
          "display": "Active"
        } ]
      },
      "verificationStatus": {
        "coding": [ {
          "system": "http://terminology.hl7.org/CodeSystem/condition-ver-status",
          "code": "confirmed",
          "display": "Confirmed"
        } ]
      },
      "category": [ {
        "coding": [ {
          "system": "http://terminology.hl7.org/CodeSystem/condition-category",
          "code": "problem-list-item",
          "display": "problem list item"
        } ]
      } ],
      "severity": {
        "coding": [ {
          "system": "http://snomed.info/sct",
          "version": "http://snomed.info/sct/731000124108/version/202303",
          "code": "24484000",
          "display": "Severe (severity modifier) (qualifier value)"
        } ]
      },
      "code": {
        "coding": [ {
          "system": "http://snomed.info/sct",
          "version": "http://snomed.info/sct/731000124108/version/202303",
          "code": "134401001",
          "display": "Left ventricular systolic dysfunction (disorder)"
        } ]
      },
      "subject": {
        "reference": "Patient/851513e6-9e1f-496e-b8bb-33f140b20d5b"
      },
      "onsetPeriod": {
        "start": "2025-02-18T14:40:00.000+00:00",
        "end": "2025-02-18T14:55:00.000+00:00"
      }
    },
    "request": {
      "method": "PUT",
      "url": "Condition/con-9687641313131"
    }
  }, {
    "fullUrl": "https://madie.cms.gov/MeasureReport/77fb1236-d45f-453b-8404-a0274aae00c8",
    "resource": {
      "resourceType": "MeasureReport",
      "id": "77fb1236-d45f-453b-8404-a0274aae00c8",
      "meta": {
        "profile": [ "http://hl7.org/fhir/us/cqfmeasures/StructureDefinition/test-case-cqfm" ]
      },
      "contained": [ {
        "resourceType": "Parameters",
        "id": "9f03b5c7-4d77-4cd4-807a-dc0493ebaee8-parameters",
        "parameter": [ {
          "name": "subject",
          "valueString": "851513e6-9e1f-496e-b8bb-33f140b20d5b"
        } ]
      } ],
      "extension": [ {
        "url": "http://hl7.org/fhir/us/cqfmeasures/StructureDefinition/cqfm-inputParameters",
        "valueReference": {
          "reference": "#9f03b5c7-4d77-4cd4-807a-dc0493ebaee8-parameters"
        }
      }, {
        "url": "http://hl7.org/fhir/us/cqfmeasures/StructureDefinition/cqfm-testCaseDescription",
        "valueMarkdown": "Patient is currently taking a beta blocker and falls into numerator"
      } ],
      "modifierExtension": [ {
        "url": "http://hl7.org/fhir/us/cqfmeasures/StructureDefinition/cqfm-isTestCase",
        "valueBoolean": true
      } ],
      "status": "complete",
      "type": "individual",
      "measure": "https://madie.cms.gov/Measure/HFBetaBlockerTherapyforLVSDFHIR",
      "period": {
        "start": "2025-01-01",
        "end": "2025-12-31"
      },
      "group": [ {
        "population": [ {
          "code": {
            "coding": [ {
              "system": "http://terminology.hl7.org/CodeSystem/measure-population",
              "code": "initial-population",
              "display": "Initial Population"
            } ]
          },
          "count": 1
        }, {
          "code": {
            "coding": [ {
              "system": "http://terminology.hl7.org/CodeSystem/measure-population",
              "code": "denominator",
              "display": "Denominator"
            } ]
          },
          "count": 1
        }, {
          "code": {
            "coding": [ {
              "system": "http://terminology.hl7.org/CodeSystem/measure-population",
              "code": "denominator-exclusion",
              "display": "Denominator Exclusion"
            } ]
          },
          "count": 0
        }, {
          "code": {
            "coding": [ {
              "system": "http://terminology.hl7.org/CodeSystem/measure-population",
              "code": "numerator",
              "display": "Numerator"
            } ]
          },
          "count": 1
        }, {
          "code": {
            "coding": [ {
              "system": "http://terminology.hl7.org/CodeSystem/measure-population",
              "code": "denominator-exception",
              "display": "Denominator Exception"
            } ]
          },
          "count": 0
        } ]
      } ],
      "evaluatedResource": [ {
        "reference": "Patient/851513e6-9e1f-496e-b8bb-33f140b20d5b"
      }, {
        "reference": "Encounter/enc-64131313124162"
      }, {
        "reference": "Encounter/enc-35431313154"
      }, {
        "reference": "Condition/con-986123131351"
      }, {
        "reference": "Practitioner/prac-63431313131"
      }, {
        "reference": "MedicationRequest/medreq-54631313131"
      }, {
        "reference": "Observation/obs-64643131351"
      }, {
        "reference": "Observation/obs-68413131351341"
      }, {
        "reference": "Condition/con-9687641313131"
      } ]
    },
    "request": {
      "method": "PUT",
      "url": "MeasureReport/77fb1236-d45f-453b-8404-a0274aae00c8"
    }
  } ]
}
