{
  "resourceType": "Bundle",
  "id": "tests-c7035ded-8d7b-4813-9a64-b8c59cc7f0d6-bundle",
  "type": "transaction",
  "entry": [ {
    "fullUrl": "https://madie.cms.gov/Patient/c7035ded-8d7b-4813-9a64-b8c59cc7f0d6",
    "resource": {
      "resourceType": "Patient",
      "id": "c7035ded-8d7b-4813-9a64-b8c59cc7f0d6",
      "meta": {
        "profile": [ "http://hl7.org/fhir/us/qicore/StructureDefinition/qicore-patient" ]
      },
      "extension": [ {
        "url": "http://hl7.org/fhir/us/core/StructureDefinition/us-core-race",
        "extension": [ {
          "url": "ombCategory",
          "valueCoding": {
            "system": "urn:oid:2.16.840.1.113883.6.238",
            "code": "1002-5",
            "display": "American Indian or Alaska Native"
          }
        }, {
          "url": "text",
          "valueString": "American Indian or Alaska Native"
        } ]
      }, {
        "url": "http://hl7.org/fhir/us/core/StructureDefinition/us-core-ethnicity",
        "extension": [ {
          "url": "ombCategory",
          "valueCoding": {
            "system": "urn:oid:2.16.840.1.113883.6.238",
            "code": "2135-2",
            "display": "Hispanic or Latino"
          }
        }, {
          "url": "text",
          "valueString": "Hispanic or Latino"
        } ]
      } ],
      "identifier": [ {
        "type": {
          "coding": [ {
            "system": "http://terminology.hl7.org/CodeSystem/v2-0203",
            "code": "MR"
          } ]
        },
        "system": "https://bonnie-fhir.healthit.gov/",
        "value": "46456313461313"
      } ],
      "name": [ {
        "family": "DENEXPass",
        "given": [ "LVADCndtnPriortoEnctr" ]
      } ],
      "gender": "female",
      "birthDate": "1982-07-27"
    },
    "request": {
      "method": "PUT",
      "url": "Patient/c7035ded-8d7b-4813-9a64-b8c59cc7f0d6"
    }
  }, {
    "fullUrl": "https://madie.cms.gov/Encounter/enc-7464631313135",
    "resource": {
      "resourceType": "Encounter",
      "id": "7464631313135",
      "meta": {
        "profile": [ "http://hl7.org/fhir/us/qicore/StructureDefinition/qicore-encounter" ]
      },
      "status": "finished",
      "class": {
        "system": "http://terminology.hl7.org/CodeSystem/v3-ActCode",
        "code": "AMB",
        "display": "ambulatory"
      },
      "type": [ {
        "coding": [ {
          "system": "http://snomed.info/sct",
          "version": "http://snomed.info/sct/731000124108/version/20230301",
          "code": "77406008",
          "display": "Confirmatory medical consultation (procedure)"
        } ]
      } ],
      "subject": {
        "reference": "Patient/c7035ded-8d7b-4813-9a64-b8c59cc7f0d6"
      },
      "period": {
        "start": "2025-02-27T08:00:00.000+00:00",
        "end": "2025-02-27T08:15:00.000+00:00"
      }
    },
    "request": {
      "method": "PUT",
      "url": "Encounter/enc-7464631313135"
    }
  }, {
    "fullUrl": "https://madie.cms.gov/Encounter/enc-7464613163",
    "resource": {
      "resourceType": "Encounter",
      "id": "7464613163",
      "meta": {
        "profile": [ "http://hl7.org/fhir/us/qicore/StructureDefinition/qicore-encounter" ]
      },
      "status": "finished",
      "class": {
        "system": "http://terminology.hl7.org/CodeSystem/v3-ActCode",
        "code": "AMB",
        "display": "ambulatory"
      },
      "type": [ {
        "coding": [ {
          "system": "http://snomed.info/sct",
          "version": "http://snomed.info/sct/731000124108/version/202303",
          "code": "185463005",
          "display": "Visit out of hours (procedure)"
        } ]
      } ],
      "subject": {
        "reference": "Patient/c7035ded-8d7b-4813-9a64-b8c59cc7f0d6"
      },
      "period": {
        "start": "2025-06-12T08:00:00.000+00:00",
        "end": "2025-06-12T08:15:00.000+00:00"
      }
    },
    "request": {
      "method": "PUT",
      "url": "Encounter/enc-7464613163"
    }
  }, {
    "fullUrl": "https://madie.cms.gov/Condition/con-461313313564",
    "resource": {
      "resourceType": "Condition",
      "id": "461313313564",
      "meta": {
        "profile": [ "http://hl7.org/fhir/us/qicore/StructureDefinition/qicore-condition" ]
      },
      "clinicalStatus": {
        "coding": [ {
          "system": "http://terminology.hl7.org/CodeSystem/condition-clinical",
          "code": "active",
          "display": "Active"
        } ]
      },
      "verificationStatus": {
        "coding": [ {
          "system": "http://terminology.hl7.org/CodeSystem/condition-ver-status",
          "code": "confirmed",
          "display": "Confirmed"
        } ]
      },
      "category": [ {
        "coding": [ {
          "system": "http://terminology.hl7.org/CodeSystem/condition-category",
          "code": "problem-list-item",
          "display": "problem list item"
        } ]
      } ],
      "severity": {
        "coding": [ {
          "system": "http://snomed.info/sct",
          "version": "http://snomed.info/sct/731000124108/version/202303",
          "code": "24484000",
          "display": "Severe (severity modifier) (qualifier value)"
        } ]
      },
      "code": {
        "coding": [ {
          "system": "http://snomed.info/sct",
          "version": "http://snomed.info/sct/731000124108/version/202303",
          "code": "134401001",
          "display": "Left ventricular systolic dysfunction (disorder)"
        } ]
      },
      "subject": {
        "reference": "Patient/c7035ded-8d7b-4813-9a64-b8c59cc7f0d6"
      },
      "onsetPeriod": {
        "start": "2025-02-18T08:00:00.000+00:00",
        "end": "2025-02-18T08:15:00.000+00:00"
      }
    },
    "request": {
      "method": "PUT",
      "url": "Condition/con-461313313564"
    }
  }, {
    "fullUrl": "https://madie.cms.gov/Condition/con-546413131631",
    "resource": {
      "resourceType": "Condition",
      "id": "546413131631",
      "meta": {
        "profile": [ "http://hl7.org/fhir/us/qicore/StructureDefinition/qicore-condition" ]
      },
      "clinicalStatus": {
        "coding": [ {
          "system": "http://terminology.hl7.org/CodeSystem/condition-clinical",
          "code": "active",
          "display": "Active"
        } ]
      },
      "verificationStatus": {
        "coding": [ {
          "system": "http://terminology.hl7.org/CodeSystem/condition-ver-status",
          "code": "confirmed",
          "display": "Confirmed"
        } ]
      },
      "category": [ {
        "coding": [ {
          "system": "http://terminology.hl7.org/CodeSystem/condition-category",
          "code": "problem-list-item",
          "display": "problem list item"
        } ]
      } ],
      "code": {
        "coding": [ {
          "system": "http://snomed.info/sct",
          "version": "http://snomed.info/sct/731000124108/version/202303",
          "code": "10091002",
          "display": "High output heart failure (disorder)"
        } ]
      },
      "subject": {
        "reference": "Patient/c7035ded-8d7b-4813-9a64-b8c59cc7f0d6"
      },
      "onsetPeriod": {
        "start": "2025-02-22T08:00:00.000+00:00"
      }
    },
    "request": {
      "method": "PUT",
      "url": "Condition/con-546413131631"
    }
  }, {
    "fullUrl": "https://madie.cms.gov/Procedure/proc-710320012",
    "resource": {
      "resourceType": "Procedure",
      "id": "710320012",
      "meta": {
        "profile": [ "http://hl7.org/fhir/us/qicore/StructureDefinition/qicore-procedure" ]
      },
      "extension": [ {
        "url": "http://hl7.org/fhir/us/qicore/StructureDefinition/qicore-recorded",
        "valueDateTime": "2025-01-31T08:00:00.000+00:00"
      } ],
      "status": "completed",
      "code": {
        "coding": [ {
          "system": "http://snomed.info/sct",
          "version": "http://snomed.info/sct/731000124108/version/202303",
          "code": "232967006",
          "display": "Implantation of left ventricular assist device (procedure)"
        } ]
      },
      "subject": {
        "reference": "Patient/c7035ded-8d7b-4813-9a64-b8c59cc7f0d6"
      },
      "performedPeriod": {
        "start": "2025-01-31T08:00:00.000+00:00"
      }
    },
    "request": {
      "method": "PUT",
      "url": "Procedure/proc-710320012"
    }
  }, {
    "fullUrl": "https://madie.cms.gov/MeasureReport/98bbfb77-b734-40a0-a47a-180905c68dbc",
    "resource": {
      "resourceType": "MeasureReport",
      "id": "98bbfb77-b734-40a0-a47a-180905c68dbc",
      "meta": {
        "profile": [ "http://hl7.org/fhir/us/cqfmeasures/StructureDefinition/test-case-cqfm" ]
      },
      "contained": [ {
        "resourceType": "Parameters",
        "id": "5173a8d9-d280-4795-86b2-84d8f8333410-parameters",
        "parameter": [ {
          "name": "subject",
          "valueString": "c7035ded-8d7b-4813-9a64-b8c59cc7f0d6"
        } ]
      } ],
      "extension": [ {
        "url": "http://hl7.org/fhir/us/cqfmeasures/StructureDefinition/cqfm-inputParameters",
        "valueReference": {
          "reference": "#5173a8d9-d280-4795-86b2-84d8f8333410-parameters"
        }
      }, {
        "url": "http://hl7.org/fhir/us/cqfmeasures/StructureDefinition/cqfm-testCaseDescription",
        "valueMarkdown": "Patient with LVAD related condition prior to encounter. Patient excluded due to documentation of LVAD during encounter."
      } ],
      "modifierExtension": [ {
        "url": "http://hl7.org/fhir/us/cqfmeasures/StructureDefinition/cqfm-isTestCase",
        "valueBoolean": true
      } ],
      "status": "complete",
      "type": "individual",
      "measure": "https://madie.cms.gov/Measure/HFBetaBlockerTherapyforLVSDFHIR",
      "period": {
        "start": "2025-01-01",
        "end": "2025-12-31"
      },
      "group": [ {
        "population": [ {
          "code": {
            "coding": [ {
              "system": "http://terminology.hl7.org/CodeSystem/measure-population",
              "code": "initial-population",
              "display": "Initial Population"
            } ]
          },
          "count": 1
        }, {
          "code": {
            "coding": [ {
              "system": "http://terminology.hl7.org/CodeSystem/measure-population",
              "code": "denominator",
              "display": "Denominator"
            } ]
          },
          "count": 1
        }, {
          "code": {
            "coding": [ {
              "system": "http://terminology.hl7.org/CodeSystem/measure-population",
              "code": "denominator-exclusion",
              "display": "Denominator Exclusion"
            } ]
          },
          "count": 1
        }, {
          "code": {
            "coding": [ {
              "system": "http://terminology.hl7.org/CodeSystem/measure-population",
              "code": "numerator",
              "display": "Numerator"
            } ]
          },
          "count": 0
        }, {
          "code": {
            "coding": [ {
              "system": "http://terminology.hl7.org/CodeSystem/measure-population",
              "code": "denominator-exception",
              "display": "Denominator Exception"
            } ]
          },
          "count": 0
        } ]
      } ],
      "evaluatedResource": [ {
        "reference": "Patient/c7035ded-8d7b-4813-9a64-b8c59cc7f0d6"
      }, {
        "reference": "Encounter/enc-7464631313135"
      }, {
        "reference": "Encounter/enc-7464613163"
      }, {
        "reference": "Condition/con-461313313564"
      }, {
        "reference": "Condition/con-546413131631"
      }, {
        "reference": "Procedure/proc-710320012"
      } ]
    },
    "request": {
      "method": "PUT",
      "url": "MeasureReport/98bbfb77-b734-40a0-a47a-180905c68dbc"
    }
  } ]
}
