{
  "resourceType": "Bundle",
  "id": "63487c300968f801225401c0",
  "type": "transaction",
  "entry": [ {
    "fullUrl": "Patient/df8636f3-8f53-4835-b81c-ef707f527d50",
    "resource": {
      "resourceType": "Patient",
      "id": "df8636f3-8f53-4835-b81c-ef707f527d50",
      "meta": {
        "profile": [ "http://hl7.org/fhir/us/qicore/StructureDefinition/qicore-patient" ]
      },
      "text": {
        "status": "generated",
        "div": "<div xmlns=\"http://www.w3.org/1999/xhtml\"><div class=\"hapiHeaderText\">AssessPerfNotAbnPres <b>DENEXFAIL </b></div><table class=\"hapiPropertyTable\"><tbody><tr><td>Identifier</td><td>db09244543fe550232b604cb7d87decbeb851047882e641e3fe736fdce398a0a</td></tr><tr><td>Date of birth</td><td><span>14 February 1985</span></td></tr></tbody></table></div>"
      },
      "extension": [ {
        "url": "http://hl7.org/fhir/us/core/StructureDefinition/us-core-race",
        "extension": [ {
          "url": "ombCategory",
          "valueCoding": {
            "system": "urn:oid:2.16.840.1.113883.6.238",
            "code": "1002-5",
            "display": "American Indian or Alaska Native",
            "userSelected": true
          }
        }, {
          "url": "text",
          "valueString": "American Indian or Alaska Native"
        } ]
      }, {
        "url": "http://hl7.org/fhir/us/core/StructureDefinition/us-core-ethnicity",
        "extension": [ {
          "url": "ombCategory",
          "valueCoding": {
            "system": "urn:oid:2.16.840.1.113883.6.238",
            "code": "2135-2",
            "display": "Hispanic or Latino",
            "userSelected": true
          }
        }, {
          "url": "text",
          "valueString": "Hispanic or Latino"
        } ]
      } ],
      "identifier": [ {
        "type": {
          "coding": [ {
            "system": "http://terminology.hl7.org/CodeSystem/v2-0203",
            "code": "MR"
          } ]
        },
        "system": "https://bonnie-fhir.healthit.gov/",
        "value": "63487c300968f801225401c0"
      } ],
      "active": true,
      "name": [ {
        "use": "usual",
        "family": "DENEXFail",
        "given": [ "AssessPerfNotAbnPres" ]
      } ],
      "gender": "female",
      "birthDate": "1997-02-14"
    },
    "request": {
      "method": "PUT",
      "url": "Patient/df8636f3-8f53-4835-b81c-ef707f527d50"
    }
  }, {
    "fullUrl": "Observation/5d014eb2b8484608723805f9",
    "resource": {
      "resourceType": "Observation",
      "id": "5d014eb2b8484608723805f9",
      "meta": {
        "profile": [ "http://hl7.org/fhir/us/qicore/StructureDefinition/qicore-observation" ]
      },
      "status": "final",
      "category": [ {
        "coding": [ {
          "system": "http://terminology.hl7.org/CodeSystem/observation-category",
          "code": "exam",
          "display": "exam",
          "userSelected": true
        } ]
      } ],
      "code": {
        "coding": [ {
          "system": "http://loinc.org",
          "code": "11996-6"
        } ]
      },
      "subject": {
        "reference": "Patient/df8636f3-8f53-4835-b81c-ef707f527d50"
      },
      "effectiveDateTime": "2025-06-08T08:00:00.000+00:00",
      "valueInteger": 1
    },
    "request": {
      "method": "PUT",
      "url": "Observation/5d014eb2b8484608723805f9"
    }
  }, {
    "fullUrl": "Observation/5d014eb2b8484608723805fb",
    "resource": {
      "resourceType": "Observation",
      "id": "5d014eb2b8484608723805fb",
      "meta": {
        "profile": [ "http://hl7.org/fhir/us/qicore/StructureDefinition/qicore-observation" ]
      },
      "status": "final",
      "category": [ {
        "coding": [ {
          "system": "http://terminology.hl7.org/CodeSystem/observation-category",
          "code": "exam",
          "display": "exam",
          "userSelected": true
        } ]
      } ],
      "code": {
        "coding": [ {
          "system": "http://loinc.org",
          "code": "11884-4"
        } ]
      },
      "subject": {
        "reference": "Patient/df8636f3-8f53-4835-b81c-ef707f527d50"
      },
      "effectiveDateTime": "2025-06-08T08:00:00.000+00:00",
      "valueQuantity": {
        "value": 43.0,
        "system": "http://unitsofmeasure.org",
        "code": "weeks"
      }
    },
    "request": {
      "method": "PUT",
      "url": "Observation/5d014eb2b8484608723805fb"
    }
  }, {
    "fullUrl": "Observation/5e61164ceadaae0000c2b22f",
    "resource": {
      "resourceType": "Observation",
      "id": "5e61164ceadaae0000c2b22f",
      "meta": {
        "profile": [ "http://hl7.org/fhir/us/qicore/StructureDefinition/qicore-observation" ]
      },
      "status": "final",
      "category": [ {
        "coding": [ {
          "system": "http://terminology.hl7.org/CodeSystem/observation-category",
          "code": "exam",
          "display": "exam",
          "userSelected": true
        } ]
      } ],
      "code": {
        "coding": [ {
          "system": "http://loinc.org",
          "code": "93857-1"
        } ]
      },
      "subject": {
        "reference": "Patient/df8636f3-8f53-4835-b81c-ef707f527d50"
      },
      "effectiveDateTime": "2025-06-08T20:00:00.000+00:00",
      "valueDateTime": "2025-06-08T20:00:00+00:00"
    },
    "request": {
      "method": "PUT",
      "url": "Observation/5e61164ceadaae0000c2b22f"
    }
  }, {
    "fullUrl": "Observation/5e611713eadaae0000c2b29b",
    "resource": {
      "resourceType": "Observation",
      "id": "5e611713eadaae0000c2b29b",
      "meta": {
        "profile": [ "http://hl7.org/fhir/us/qicore/StructureDefinition/qicore-observation" ]
      },
      "status": "final",
      "category": [ {
        "coding": [ {
          "system": "http://terminology.hl7.org/CodeSystem/observation-category",
          "code": "exam",
          "display": "exam",
          "userSelected": true
        } ]
      } ],
      "code": {
        "coding": [ {
          "system": "http://snomed.info/sct",
          "code": "9999999"
        } ]
      },
      "subject": {
        "reference": "Patient/df8636f3-8f53-4835-b81c-ef707f527d50"
      },
      "effectiveDateTime": "2025-06-08T08:00:00.000+00:00"
    },
    "request": {
      "method": "PUT",
      "url": "Observation/5e611713eadaae0000c2b29b"
    }
  }, {
    "fullUrl": "Encounter/5d014eb2b8484608723805f6",
    "resource": {
      "resourceType": "Encounter",
      "id": "5d014eb2b8484608723805f6",
      "meta": {
        "profile": [ "http://hl7.org/fhir/us/qicore/StructureDefinition/qicore-encounter" ]
      },
      "status": "finished",
      "class": {
        "system": "http://terminology.hl7.org/CodeSystem/v3-ActCode",
        "code": "IMP",
        "display": "inpatient encounter"
      },
      "type": [ {
        "coding": [ {
          "system": "http://snomed.info/sct",
          "code": "8715000"
        } ]
      } ],
      "subject": {
        "reference": "Patient/df8636f3-8f53-4835-b81c-ef707f527d50"
      },
      "period": {
        "start": "2025-06-08T08:00:00.000Z",
        "end": "2025-06-10T08:15:00.000Z"
      },
      "diagnosis": [ {
        "condition": {
          "reference": "Condition/delivery-of-singleton-09a5"
        }
      } ]
    },
    "request": {
      "method": "PUT",
      "url": "Encounter/5d014eb2b8484608723805f6"
    }
  }, {
    "fullUrl": "Procedure/5d014eb2b8484608723805f7",
    "resource": {
      "resourceType": "Procedure",
      "id": "5d014eb2b8484608723805f7",
      "meta": {
        "profile": [ "http://hl7.org/fhir/us/qicore/StructureDefinition/qicore-procedure" ]
      },
      "extension": [ {
        "url": "http://hl7.org/fhir/us/qicore/StructureDefinition/qicore-recorded",
        "valueDateTime": "2013-04-05T09:35:00-04:00"
      } ],
      "status": "completed",
      "code": {
        "coding": [ {
          "system": "http://www.cms.gov/Medicare/Coding/ICD10",
          "code": "10D00Z0"
        }, {
          "system": "http://snomed.info/sct",
          "code": "4504004"
        } ]
      },
      "subject": {
        "reference": "Patient/df8636f3-8f53-4835-b81c-ef707f527d50"
      },
      "performedPeriod": {
        "start": "2025-06-08T20:00:00.000Z",
        "end": "2025-06-18T20:00:00.000Z"
      }
    },
    "request": {
      "method": "PUT",
      "url": "Procedure/5d014eb2b8484608723805f7"
    }
  }, {
    "fullUrl": "Condition/delivery-of-singleton-09a5",
    "resource": {
      "resourceType": "Condition",
      "id": "delivery-of-singleton-09a5",
      "meta": {
        "profile": [ "http://hl7.org/fhir/us/qicore/StructureDefinition/qicore-condition" ]
      },
      "category": [ {
        "coding": [ {
          "system": "http://terminology.hl7.org/CodeSystem/condition-category",
          "code": "encounter-diagnosis",
          "display": "Encounter Diagnosis"
        } ]
      } ],
      "code": {
        "coding": [ {
          "system": "http://snomed.info/sct",
          "version": "2022-09",
          "code": "169826009",
          "display": "Single live birth (finding)",
          "userSelected": true
        } ]
      },
      "subject": {
        "reference": "Patient/df8636f3-8f53-4835-b81c-ef707f527d50"
      },
      "recordedDate": "2025-10-17T08:00:00.000+00:00"
    },
    "request": {
      "method": "PUT",
      "url": "Condition/delivery-of-singleton-09a5"
    }
  }, {
    "fullUrl": "Coverage/Coverage-1",
    "resource": {
      "resourceType": "Coverage",
      "id": "Coverage-1",
      "meta": {
        "profile": [ "http://hl7.org/fhir/us/qicore/StructureDefinition/qicore-coverage" ]
      },
      "status": "active",
      "beneficiary": {
        "reference": "Patient/df8636f3-8f53-4835-b81c-ef707f527d50"
      },
      "payor": [ {
        "reference": "Organization/Org-123456"
      } ]
    },
    "request": {
      "method": "PUT",
      "url": "Coverage/Coverage-1"
    }
  }, {
    "fullUrl": "Organization/Org-123456",
    "resource": {
      "resourceType": "Organization",
      "id": "Org-123456",
      "meta": {
        "profile": [ "http://hl7.org/fhir/us/qicore/StructureDefinition/qicore-organization" ]
      },
      "identifier": [ {
        "use": "temp",
        "system": "urn:oid:2.16.840.1.113883.4.4",
        "value": "21-3259825"
      } ],
      "active": true,
      "type": [ {
        "coding": [ {
          "system": "http://terminology.hl7.org/CodeSystem/organization-type",
          "code": "pay",
          "display": "Payer"
        } ]
      } ],
      "name": "Blue Cross Blue Shield of Texas",
      "telecom": [ {
        "system": "phone",
        "value": "(+1) 972-766-6900"
      } ],
      "address": [ {
        "use": "billing",
        "type": "postal",
        "line": [ "P.O. Box 660044" ],
        "city": "Dallas",
        "state": "TX",
        "postalCode": "75266-0044",
        "country": "USA"
      } ]
    },
    "request": {
      "method": "PUT",
      "url": "Organization/Org-123456"
    }
  }, {
    "fullUrl": "Practitioner/practitioner-123456",
    "resource": {
      "resourceType": "Practitioner",
      "id": "practitioner-123456",
      "identifier": [ {
        "system": "http://hl7.org/fhir/sid/us-npi",
        "value": "123456"
      } ],
      "name": [ {
        "family": "Evil",
        "prefix": [ "Dr" ]
      } ]
    },
    "request": {
      "method": "PUT",
      "url": "Practitioner/practitioner-123456"
    }
  }, {
    "fullUrl": "MeasureReport/b2afacae-8e28-4f0c-a3d3-847219e9a555",
    "resource": {
      "resourceType": "MeasureReport",
      "id": "b2afacae-8e28-4f0c-a3d3-847219e9a555",
      "meta": {
        "profile": [ "http://hl7.org/fhir/us/cqfmeasures/StructureDefinition/test-case-cqfm" ]
      },
      "contained": [ {
        "resourceType": "Parameters",
        "id": "d5762d70-dc59-4c03-9db0-e19eee88418c-parameters",
        "parameter": [ {
          "name": "subject",
          "valueString": "df8636f3-8f53-4835-b81c-ef707f527d50"
        } ]
      } ],
      "extension": [ {
        "url": "http://hl7.org/fhir/us/cqfmeasures/StructureDefinition/cqfm-inputParameters",
        "valueReference": {
          "reference": "#d5762d70-dc59-4c03-9db0-e19eee88418c-parameters"
        }
      }, {
        "url": "http://hl7.org/fhir/us/cqfmeasures/StructureDefinition/cqfm-testCaseDescription",
        "valueMarkdown": "EGA 43 weeks; Assessment performed but NOT Abnormal presentation , gravida 1, \n"
      } ],
      "modifierExtension": [ {
        "url": "http://hl7.org/fhir/us/cqfmeasures/StructureDefinition/cqfm-isTestCase",
        "valueBoolean": true
      } ],
      "status": "complete",
      "type": "individual",
      "measure": "Measure/CesareanBirthFHIR",
      "period": {
        "start": "2025-01-01",
        "end": "2025-12-31"
      },
      "group": [ {
        "population": [ {
          "code": {
            "coding": [ {
              "system": "http://terminology.hl7.org/CodeSystem/measure-population",
              "code": "initial-population",
              "display": "Initial Population"
            } ]
          },
          "count": 1
        }, {
          "code": {
            "coding": [ {
              "system": "http://terminology.hl7.org/CodeSystem/measure-population",
              "code": "denominator",
              "display": "Denominator"
            } ]
          },
          "count": 1
        }, {
          "code": {
            "coding": [ {
              "system": "http://terminology.hl7.org/CodeSystem/measure-population",
              "code": "denominator-exclusion",
              "display": "Denominator Exclusion"
            } ]
          },
          "count": 0
        }, {
          "code": {
            "coding": [ {
              "system": "http://terminology.hl7.org/CodeSystem/measure-population",
              "code": "numerator",
              "display": "Numerator"
            } ]
          },
          "count": 0
        } ]
      } ],
      "evaluatedResource": [ {
        "reference": "Patient/df8636f3-8f53-4835-b81c-ef707f527d50"
      }, {
        "reference": "Observation/5d014eb2b8484608723805f9"
      }, {
        "reference": "Observation/5d014eb2b8484608723805fb"
      }, {
        "reference": "Observation/5e61164ceadaae0000c2b22f"
      }, {
        "reference": "Observation/5e611713eadaae0000c2b29b"
      }, {
        "reference": "Encounter/5d014eb2b8484608723805f6"
      }, {
        "reference": "Procedure/5d014eb2b8484608723805f7"
      }, {
        "reference": "Condition/delivery-of-singleton-09a5"
      }, {
        "reference": "Coverage/Coverage-1"
      }, {
        "reference": "Organization/Org-123456"
      }, {
        "reference": "Practitioner/practitioner-123456"
      } ]
    },
    "request": {
      "method": "PUT",
      "url": "MeasureReport/b2afacae-8e28-4f0c-a3d3-847219e9a555"
    }
  } ]
}
