{
  "resourceType": "Bundle",
  "id": "63487c2e0968f8012254017c",
  "type": "transaction",
  "entry": [ {
    "fullUrl": "https://madie.cms.gov/Patient/4b7b91d4-6f82-4db4-bc04-846bc01796b1",
    "resource": {
      "resourceType": "Patient",
      "id": "4b7b91d4-6f82-4db4-bc04-846bc01796b1",
      "meta": {
        "profile": [ "http://hl7.org/fhir/us/qicore/StructureDefinition/qicore-patient" ]
      },
      "text": {
        "status": "generated",
        "div": "<div xmlns=\"http://www.w3.org/1999/xhtml\"><div class=\"hapiHeaderText\">AssessG2P0 <b>DENPASS </b></div><table class=\"hapiPropertyTable\"><tbody><tr><td>Identifier</td><td>7ba44015901d3cd7e5539bec3f21dcf010a0d16b413410d65a34b2ae152ba10f</td></tr><tr><td>Date of birth</td><td><span>14 February 1985</span></td></tr></tbody></table></div>"
      },
      "extension": [ {
        "url": "http://hl7.org/fhir/us/core/StructureDefinition/us-core-race",
        "extension": [ {
          "url": "ombCategory",
          "valueCoding": {
            "system": "urn:oid:2.16.840.1.113883.6.238",
            "code": "1002-5",
            "display": "American Indian or Alaska Native",
            "userSelected": true
          }
        }, {
          "url": "text",
          "valueString": "American Indian or Alaska Native"
        } ]
      }, {
        "url": "http://hl7.org/fhir/us/core/StructureDefinition/us-core-ethnicity",
        "extension": [ {
          "url": "ombCategory",
          "valueCoding": {
            "system": "urn:oid:2.16.840.1.113883.6.238",
            "code": "2135-2",
            "display": "Hispanic or Latino",
            "userSelected": true
          }
        }, {
          "url": "text",
          "valueString": "Hispanic or Latino"
        } ]
      } ],
      "identifier": [ {
        "type": {
          "coding": [ {
            "system": "http://terminology.hl7.org/CodeSystem/v2-0203",
            "code": "MR"
          } ]
        },
        "system": "https://bonnie-fhir.healthit.gov/",
        "value": "63487c2e0968f8012254017c"
      } ],
      "active": true,
      "name": [ {
        "use": "usual",
        "family": "DENPass",
        "given": [ "AssessG2P0" ]
      } ],
      "gender": "female",
      "birthDate": "1997-02-14"
    },
    "request": {
      "method": "POST",
      "url": "Patient/4b7b91d4-6f82-4db4-bc04-846bc01796b1"
    }
  }, {
    "fullUrl": "https://madie.cms.gov/Observation/5d014eb1b84846087238045f",
    "resource": {
      "resourceType": "Observation",
      "id": "5d014eb1b84846087238045f",
      "meta": {
        "profile": [ "http://hl7.org/fhir/us/qicore/StructureDefinition/qicore-observation" ]
      },
      "status": "final",
      "category": [ {
        "coding": [ {
          "system": "http://terminology.hl7.org/CodeSystem/observation-category",
          "code": "exam",
          "display": "exam",
          "userSelected": true
        } ]
      } ],
      "code": {
        "coding": [ {
          "system": "http://loinc.org",
          "code": "11977-6"
        } ]
      },
      "subject": {
        "reference": "Patient/4b7b91d4-6f82-4db4-bc04-846bc01796b1"
      },
      "effectiveDateTime": "2025-04-08T09:00:00.000+00:00",
      "valueInteger": 0
    },
    "request": {
      "method": "POST",
      "url": "Observation/5d014eb1b84846087238045f"
    }
  }, {
    "fullUrl": "https://madie.cms.gov/Observation/5d014eb1b848460872380461",
    "resource": {
      "resourceType": "Observation",
      "id": "5d014eb1b848460872380461",
      "meta": {
        "profile": [ "http://hl7.org/fhir/us/qicore/StructureDefinition/qicore-observation" ]
      },
      "status": "final",
      "category": [ {
        "coding": [ {
          "system": "http://terminology.hl7.org/CodeSystem/observation-category",
          "code": "exam",
          "display": "exam",
          "userSelected": true
        } ]
      } ],
      "code": {
        "coding": [ {
          "system": "http://loinc.org",
          "code": "11996-6"
        } ]
      },
      "subject": {
        "reference": "Patient/4b7b91d4-6f82-4db4-bc04-846bc01796b1"
      },
      "effectiveDateTime": "2025-04-09T08:00:00.000+00:00",
      "valueInteger": 2
    },
    "request": {
      "method": "POST",
      "url": "Observation/5d014eb1b848460872380461"
    }
  }, {
    "fullUrl": "https://madie.cms.gov/Observation/5d014eb1b848460872380463",
    "resource": {
      "resourceType": "Observation",
      "id": "5d014eb1b848460872380463",
      "meta": {
        "profile": [ "http://hl7.org/fhir/us/qicore/StructureDefinition/qicore-observation" ]
      },
      "status": "final",
      "category": [ {
        "coding": [ {
          "system": "http://terminology.hl7.org/CodeSystem/observation-category",
          "code": "exam",
          "display": "exam",
          "userSelected": true
        } ]
      } ],
      "code": {
        "coding": [ {
          "system": "http://loinc.org",
          "code": "11884-4"
        } ]
      },
      "subject": {
        "reference": "Patient/4b7b91d4-6f82-4db4-bc04-846bc01796b1"
      },
      "effectiveDateTime": "2025-06-08T07:00:00.000+00:00",
      "valueQuantity": {
        "value": 37.0,
        "system": "http://unitsofmeasure.org",
        "code": "weeks"
      }
    },
    "request": {
      "method": "POST",
      "url": "Observation/5d014eb1b848460872380463"
    }
  }, {
    "fullUrl": "https://madie.cms.gov/Observation/5e68e85859d82f0000c95b93",
    "resource": {
      "resourceType": "Observation",
      "id": "5e68e85859d82f0000c95b93",
      "meta": {
        "profile": [ "http://hl7.org/fhir/us/qicore/StructureDefinition/qicore-observation" ]
      },
      "status": "final",
      "category": [ {
        "coding": [ {
          "system": "http://terminology.hl7.org/CodeSystem/observation-category",
          "code": "exam",
          "display": "exam",
          "userSelected": true
        } ]
      } ],
      "code": {
        "coding": [ {
          "system": "http://loinc.org",
          "code": "93857-1"
        } ]
      },
      "subject": {
        "reference": "Patient/4b7b91d4-6f82-4db4-bc04-846bc01796b1"
      },
      "effectiveDateTime": "2025-06-08T07:15:00.000+00:00",
      "valueDateTime": "2025-06-08T07:15:00+00:00"
    },
    "request": {
      "method": "POST",
      "url": "Observation/5e68e85859d82f0000c95b93"
    }
  }, {
    "fullUrl": "https://madie.cms.gov/Encounter/5d014eb1b84846087238045c",
    "resource": {
      "resourceType": "Encounter",
      "id": "5d014eb1b84846087238045c",
      "meta": {
        "profile": [ "http://hl7.org/fhir/us/qicore/StructureDefinition/qicore-encounter" ]
      },
      "status": "finished",
      "class": {
        "system": "http://terminology.hl7.org/CodeSystem/v3-ActCode",
        "code": "IMP",
        "display": "inpatient encounter"
      },
      "type": [ {
        "coding": [ {
          "system": "http://snomed.info/sct",
          "code": "8715000"
        } ]
      } ],
      "subject": {
        "reference": "Patient/4b7b91d4-6f82-4db4-bc04-846bc01796b1"
      },
      "period": {
        "start": "2025-06-08T05:00:00.000Z",
        "end": "2025-06-10T08:15:00.000Z"
      },
      "length": {
        "value": 2.0,
        "unit": "days"
      },
      "diagnosis": [ {
        "condition": {
          "reference": "Condition/delivery-of-singleton-f83c"
        },
        "use": {
          "coding": [ {
            "system": "http://snomed.info/sct",
            "code": "169826009",
            "display": "Delivery of Singleton"
          } ]
        }
      }, {
        "condition": {
          "reference": "Condition/delivery-of-singleton-4d2b"
        }
      } ]
    },
    "request": {
      "method": "POST",
      "url": "Encounter/5d014eb1b84846087238045c"
    }
  }, {
    "fullUrl": "https://madie.cms.gov/Procedure/5d014eb1b84846087238045d",
    "resource": {
      "resourceType": "Procedure",
      "id": "5d014eb1b84846087238045d",
      "meta": {
        "profile": [ "http://hl7.org/fhir/us/qicore/StructureDefinition/qicore-procedure" ]
      },
      "extension": [ {
        "url": "http://hl7.org/fhir/us/qicore/StructureDefinition/qicore-recorded",
        "valueDateTime": "2013-04-05T09:35:00-04:00"
      } ],
      "status": "completed",
      "code": {
        "coding": [ {
          "system": "http://www.cms.gov/Medicare/Coding/ICD10",
          "code": "10D00Z0"
        }, {
          "system": "http://snomed.info/sct",
          "code": "4504004"
        } ]
      },
      "subject": {
        "reference": "Patient/4b7b91d4-6f82-4db4-bc04-846bc01796b1"
      },
      "performedPeriod": {
        "start": "2025-06-08T06:00:00.000Z",
        "end": "2025-06-08T07:15:00.000Z"
      }
    },
    "request": {
      "method": "POST",
      "url": "Procedure/5d014eb1b84846087238045d"
    }
  }, {
    "fullUrl": "https://madie.cms.gov/Procedure/5e68e9c259d82f0000c95bc6",
    "resource": {
      "resourceType": "Procedure",
      "id": "5e68e9c259d82f0000c95bc6",
      "meta": {
        "profile": [ "http://hl7.org/fhir/us/qicore/StructureDefinition/qicore-procedure" ]
      },
      "extension": [ {
        "url": "http://hl7.org/fhir/us/qicore/StructureDefinition/qicore-recorded",
        "valueDateTime": "2013-04-05T09:35:00-04:00"
      } ],
      "status": "completed",
      "code": {
        "coding": [ {
          "system": "http://www.cms.gov/Medicare/Coding/ICD10",
          "code": "10D00Z0"
        } ]
      },
      "subject": {
        "reference": "Patient/4b7b91d4-6f82-4db4-bc04-846bc01796b1"
      },
      "performedPeriod": {
        "start": "2025-06-08T06:00:00.000Z",
        "end": "2025-06-08T07:15:00.000Z"
      }
    },
    "request": {
      "method": "POST",
      "url": "Procedure/5e68e9c259d82f0000c95bc6"
    }
  }, {
    "fullUrl": "https://madie.cms.gov/Condition/delivery-of-singleton-4d2b",
    "resource": {
      "resourceType": "Condition",
      "id": "delivery-of-singleton-4d2b",
      "meta": {
        "profile": [ "http://hl7.org/fhir/us/qicore/StructureDefinition/qicore-condition" ]
      },
      "category": [ {
        "coding": [ {
          "system": "http://terminology.hl7.org/CodeSystem/condition-category",
          "code": "encounter-diagnosis",
          "display": "Encounter Diagnosis"
        } ]
      } ],
      "code": {
        "coding": [ {
          "system": "http://snomed.info/sct",
          "version": "2022-09",
          "code": "169826009",
          "display": "Single live birth (finding)",
          "userSelected": true
        } ]
      },
      "subject": {
        "reference": "Patient/4b7b91d4-6f82-4db4-bc04-846bc01796b1"
      },
      "recordedDate": "2025-10-18T08:00:00.000+00:00"
    },
    "request": {
      "method": "POST",
      "url": "Condition/delivery-of-singleton-4d2b"
    }
  }, {
    "fullUrl": "https://madie.cms.gov/Coverage/1",
    "resource": {
      "resourceType": "Coverage",
      "id": "1",
      "meta": {
        "profile": [ "http://hl7.org/fhir/us/qicore/StructureDefinition/qicore-coverage" ]
      },
      "status": "active",
      "beneficiary": {
        "reference": "Patient/4b7b91d4-6f82-4db4-bc04-846bc01796b1"
      },
      "payor": [ {
        "reference": "Organization/123456"
      } ]
    },
    "request": {
      "method": "POST",
      "url": "Coverage/1"
    }
  }, {
    "fullUrl": "https://madie.cms.gov/Organization/123456",
    "resource": {
      "resourceType": "Organization",
      "id": "123456",
      "meta": {
        "profile": [ "http://hl7.org/fhir/us/qicore/StructureDefinition/qicore-organization" ]
      },
      "identifier": [ {
        "use": "temp",
        "system": "urn:oid:2.16.840.1.113883.4.4",
        "value": "21-3259825"
      } ],
      "active": true,
      "type": [ {
        "coding": [ {
          "system": "http://terminology.hl7.org/CodeSystem/organization-type",
          "code": "pay",
          "display": "Payer"
        } ]
      } ],
      "name": "Blue Cross Blue Shield of Texas",
      "telecom": [ {
        "system": "phone",
        "value": "(+1) 972-766-6900"
      } ],
      "address": [ {
        "use": "billing",
        "type": "postal",
        "line": [ "P.O. Box 660044" ],
        "city": "Dallas",
        "state": "TX",
        "postalCode": "75266-0044",
        "country": "USA"
      } ]
    },
    "request": {
      "method": "POST",
      "url": "Organization/123456"
    }
  }, {
    "fullUrl": "https://madie.cms.gov/Practitioner/practitioner-123456",
    "resource": {
      "resourceType": "Practitioner",
      "id": "practitioner-123456",
      "identifier": [ {
        "system": "http://hl7.org/fhir/sid/us-npi",
        "value": "123456"
      } ],
      "name": [ {
        "family": "Evil",
        "prefix": [ "Dr" ]
      } ]
    },
    "request": {
      "method": "POST",
      "url": "Practitioner/practitioner-123456"
    }
  }, {
    "fullUrl": "https://madie.cms.gov/MeasureReport/0c9544f3-3d7a-417c-af5a-56d46941769d",
    "resource": {
      "resourceType": "MeasureReport",
      "id": "0c9544f3-3d7a-417c-af5a-56d46941769d",
      "meta": {
        "profile": [ "http://hl7.org/fhir/us/cqfmeasures/StructureDefinition/test-case-cqfm" ]
      },
      "contained": [ {
        "resourceType": "Parameters",
        "id": "7f12b059-9df4-48fb-a388-15377e9ed47e-parameters",
        "parameter": [ {
          "name": "subject",
          "valueString": "4b7b91d4-6f82-4db4-bc04-846bc01796b1"
        } ]
      } ],
      "extension": [ {
        "url": "http://hl7.org/fhir/us/cqfmeasures/StructureDefinition/cqfm-inputParameters",
        "valueReference": {
          "reference": "#7f12b059-9df4-48fb-a388-15377e9ed47e-parameters"
        }
      }, {
        "url": "http://hl7.org/fhir/us/cqfmeasures/StructureDefinition/cqfm-testCaseDescription",
        "valueMarkdown": "This patient has Gravida 2 Parity 0.  This measure accepts Parity 0 for denom regardless of Gravida value (union).\n"
      } ],
      "modifierExtension": [ {
        "url": "http://hl7.org/fhir/us/cqfmeasures/StructureDefinition/cqfm-isTestCase",
        "valueBoolean": true
      } ],
      "status": "complete",
      "type": "individual",
      "measure": "https://madie.cms.gov/Measure/CesareanBirthFHIR",
      "period": {
        "start": "2025-01-01",
        "end": "2025-12-31"
      },
      "group": [ {
        "population": [ {
          "code": {
            "coding": [ {
              "system": "http://terminology.hl7.org/CodeSystem/measure-population",
              "code": "initial-population",
              "display": "Initial Population"
            } ]
          },
          "count": 1
        }, {
          "code": {
            "coding": [ {
              "system": "http://terminology.hl7.org/CodeSystem/measure-population",
              "code": "denominator",
              "display": "Denominator"
            } ]
          },
          "count": 1
        }, {
          "code": {
            "coding": [ {
              "system": "http://terminology.hl7.org/CodeSystem/measure-population",
              "code": "denominator-exclusion",
              "display": "Denominator Exclusion"
            } ]
          },
          "count": 0
        }, {
          "code": {
            "coding": [ {
              "system": "http://terminology.hl7.org/CodeSystem/measure-population",
              "code": "numerator",
              "display": "Numerator"
            } ]
          },
          "count": 1
        } ]
      } ],
      "evaluatedResource": [ {
        "reference": "https://madie.cms.gov/Patient/4b7b91d4-6f82-4db4-bc04-846bc01796b1"
      }, {
        "reference": "https://madie.cms.gov/Observation/5d014eb1b84846087238045f"
      }, {
        "reference": "https://madie.cms.gov/Observation/5d014eb1b848460872380461"
      }, {
        "reference": "https://madie.cms.gov/Observation/5d014eb1b848460872380463"
      }, {
        "reference": "https://madie.cms.gov/Observation/5e68e85859d82f0000c95b93"
      }, {
        "reference": "https://madie.cms.gov/Encounter/5d014eb1b84846087238045c"
      }, {
        "reference": "https://madie.cms.gov/Procedure/5d014eb1b84846087238045d"
      }, {
        "reference": "https://madie.cms.gov/Procedure/5e68e9c259d82f0000c95bc6"
      }, {
        "reference": "https://madie.cms.gov/Condition/delivery-of-singleton-4d2b"
      }, {
        "reference": "https://madie.cms.gov/Coverage/1"
      }, {
        "reference": "https://madie.cms.gov/Organization/123456"
      }, {
        "reference": "https://madie.cms.gov/Practitioner/practitioner-123456"
      } ]
    },
    "request": {
      "method": "POST",
      "url": "MeasureReport/0c9544f3-3d7a-417c-af5a-56d46941769d"
    }
  } ]
}