{
  "resourceType": "Bundle",
  "id": "6346598964316463464163",
  "type": "transaction",
  "entry": [ {
    "fullUrl": "https://madie.cms.gov/Patient/dd4e465a-3796-4d5d-af53-3e2ab1e4041b",
    "resource": {
      "resourceType": "Patient",
      "id": "dd4e465a-3796-4d5d-af53-3e2ab1e4041b",
      "meta": {
        "profile": [ "http://hl7.org/fhir/us/qicore/StructureDefinition/qicore-patient" ]
      },
      "extension": [ {
        "url": "http://hl7.org/fhir/us/core/StructureDefinition/us-core-race",
        "extension": [ {
          "url": "ombCategory",
          "valueCoding": {
            "system": "urn:oid:2.16.840.1.113883.6.238",
            "code": "1002-5",
            "display": "American Indian or Alaska Native"
          }
        }, {
          "url": "text",
          "valueString": "American Indian or Alaska Native"
        } ]
      }, {
        "url": "http://hl7.org/fhir/us/core/StructureDefinition/us-core-ethnicity",
        "extension": [ {
          "url": "ombCategory",
          "valueCoding": {
            "system": "urn:oid:2.16.840.1.113883.6.238",
            "code": "2186-5",
            "display": "Not Hispanic or Latino"
          }
        }, {
          "url": "text",
          "valueString": "Not Hispanic or Latino"
        } ]
      } ],
      "identifier": [ {
        "type": {
          "coding": [ {
            "system": "http://terminology.hl7.org/CodeSystem/v2-0203",
            "code": "MR"
          } ]
        },
        "system": "https://bonnie-fhir.healthit.gov/",
        "value": "24649676746413464"
      } ],
      "active": true,
      "name": [ {
        "use": "usual",
        "family": "DENEXCEPPop1Pass",
        "given": [ "Carvedilol25MGOralTabletPatRsn" ]
      } ],
      "gender": "male",
      "birthDate": "1967-12-14"
    },
    "request": {
      "method": "POST",
      "url": "Patient/dd4e465a-3796-4d5d-af53-3e2ab1e4041b"
    }
  }, {
    "fullUrl": "https://madie.cms.gov/Encounter/341345694634163434",
    "resource": {
      "resourceType": "Encounter",
      "id": "341345694634163434",
      "meta": {
        "profile": [ "http://hl7.org/fhir/us/qicore/StructureDefinition/qicore-encounter" ]
      },
      "status": "finished",
      "class": {
        "system": "http://terminology.hl7.org/CodeSystem/v3-ActCode",
        "code": "AMB",
        "display": "ambulatory"
      },
      "type": [ {
        "coding": [ {
          "system": "http://www.ama-assn.org/go/cpt",
          "version": "2024",
          "code": "99202",
          "display": "Office or other outpatient visit for the evaluation and management of a new patient, which requires a medically appropriate history and/or examination and straightforward medical decision making. When using time for code selection, 15-29 minutes of total time is spent on the date of the encounter."
        } ]
      } ],
      "subject": {
        "reference": "Patient/dd4e465a-3796-4d5d-af53-3e2ab1e4041b"
      },
      "period": {
        "start": "2025-02-01T12:00:00+00:00",
        "end": "2025-02-01T13:00:00+00:00"
      },
      "length": {
        "value": 0,
        "unit": "days"
      }
    },
    "request": {
      "method": "POST",
      "url": "Encounter/341345694634163434"
    }
  }, {
    "fullUrl": "https://madie.cms.gov/Encounter/34645931347324354973",
    "resource": {
      "resourceType": "Encounter",
      "id": "34645931347324354973",
      "meta": {
        "profile": [ "http://hl7.org/fhir/us/qicore/StructureDefinition/qicore-encounter" ]
      },
      "status": "finished",
      "class": {
        "system": "http://terminology.hl7.org/CodeSystem/v3-ActCode",
        "code": "AMB",
        "display": "ambulatory"
      },
      "type": [ {
        "coding": [ {
          "system": "http://www.ama-assn.org/go/cpt",
          "version": "2024",
          "code": "99212",
          "display": "Office or other outpatient visit for the evaluation and management of an established patient, which requires a medically appropriate history and/or examination and straightforward medical decision making. When using time for code selection, 10-19 minutes of total time is spent on the date of the encounter."
        } ]
      } ],
      "subject": {
        "reference": "Patient/dd4e465a-3796-4d5d-af53-3e2ab1e4041b"
      },
      "period": {
        "start": "2025-10-15T12:15:00+00:00",
        "end": "2025-10-15T13:15:00+00:00"
      },
      "length": {
        "value": 0,
        "unit": "days"
      }
    },
    "request": {
      "method": "POST",
      "url": "Encounter/34645931347324354973"
    }
  }, {
    "fullUrl": "https://madie.cms.gov/Condition/349496313643424243",
    "resource": {
      "resourceType": "Condition",
      "id": "349496313643424243",
      "meta": {
        "profile": [ "http://hl7.org/fhir/us/qicore/StructureDefinition/qicore-condition" ]
      },
      "clinicalStatus": {
        "coding": [ {
          "system": "http://terminology.hl7.org/CodeSystem/condition-clinical",
          "code": "active",
          "display": "Active"
        } ]
      },
      "verificationStatus": {
        "coding": [ {
          "system": "http://terminology.hl7.org/CodeSystem/condition-ver-status",
          "code": "confirmed",
          "display": "Confirmed"
        } ]
      },
      "category": [ {
        "coding": [ {
          "system": "http://terminology.hl7.org/CodeSystem/condition-category",
          "code": "problem-list-item",
          "display": "Problem List Item"
        } ]
      } ],
      "severity": {
        "coding": [ {
          "system": "http://snomed.info/sct",
          "version": "http://snomed.info/sct/731000124108/version/20240301",
          "code": "24484000",
          "display": "Severe (severity modifier) (qualifier value)"
        } ]
      },
      "code": {
        "coding": [ {
          "system": "http://snomed.info/sct",
          "version": "http://snomed.info/sct/731000124108/version/20240301",
          "code": "134401001"
        } ]
      },
      "subject": {
        "reference": "Patient/dd4e465a-3796-4d5d-af53-3e2ab1e4041b"
      },
      "onsetPeriod": {
        "start": "2025-01-31T12:00:00+00:00"
      }
    },
    "request": {
      "method": "POST",
      "url": "Condition/349496313643424243"
    }
  }, {
    "fullUrl": "https://madie.cms.gov/Condition/346459685612341343",
    "resource": {
      "resourceType": "Condition",
      "id": "346459685612341343",
      "meta": {
        "profile": [ "http://hl7.org/fhir/us/qicore/StructureDefinition/qicore-condition" ]
      },
      "clinicalStatus": {
        "coding": [ {
          "system": "http://terminology.hl7.org/CodeSystem/condition-clinical",
          "code": "active",
          "display": "Active"
        } ]
      },
      "verificationStatus": {
        "coding": [ {
          "system": "http://terminology.hl7.org/CodeSystem/condition-ver-status",
          "code": "confirmed",
          "display": "Confirmed"
        } ]
      },
      "category": [ {
        "coding": [ {
          "system": "http://terminology.hl7.org/CodeSystem/condition-category",
          "code": "problem-list-item",
          "display": "Problem List Item"
        } ]
      } ],
      "code": {
        "coding": [ {
          "system": "http://snomed.info/sct",
          "version": "http://snomed.info/sct/731000124108/version/20240301",
          "code": "10365005",
          "display": "Right main coronary artery thrombosis (disorder)"
        } ]
      },
      "subject": {
        "reference": "Patient/dd4e465a-3796-4d5d-af53-3e2ab1e4041b"
      },
      "onsetPeriod": {
        "start": "2025-10-16T00:00:00+00:00"
      }
    },
    "request": {
      "method": "POST",
      "url": "Condition/346459685612341343"
    }
  }, {
    "fullUrl": "https://madie.cms.gov/Condition/35264597641634645345",
    "resource": {
      "resourceType": "Condition",
      "id": "35264597641634645345",
      "meta": {
        "profile": [ "http://hl7.org/fhir/us/qicore/StructureDefinition/qicore-condition" ]
      },
      "clinicalStatus": {
        "coding": [ {
          "system": "http://terminology.hl7.org/CodeSystem/condition-clinical",
          "code": "active",
          "display": "Active"
        } ]
      },
      "category": [ {
        "coding": [ {
          "system": "http://terminology.hl7.org/CodeSystem/condition-category",
          "code": "problem-list-item",
          "display": "Problem List Item"
        } ]
      } ],
      "code": {
        "coding": [ {
          "system": "http://snomed.info/sct",
          "version": "http://snomed.info/sct/731000124108/version/20240301",
          "code": "441509002",
          "display": "Cardiac pacemaker in situ"
        } ]
      },
      "subject": {
        "reference": "Patient/dd4e465a-3796-4d5d-af53-3e2ab1e4041b"
      },
      "onsetPeriod": {
        "start": "2025-10-16T00:00:00+00:00"
      }
    },
    "request": {
      "method": "POST",
      "url": "Condition/35264597641634645345"
    }
  }, {
    "fullUrl": "https://madie.cms.gov/MedicationRequest/346346431316343413",
    "resource": {
      "resourceType": "MedicationRequest",
      "id": "346346431316343413",
      "meta": {
        "profile": [ "http://hl7.org/fhir/us/qicore/StructureDefinition/qicore-mednotrequested" ]
      },
      "status": "completed",
      "intent": "order",
      "doNotPerform": true,
      "medicationCodeableConcept": {
        "coding": [ {
          "system": "http://www.nlm.nih.gov/research/umls/rxnorm",
          "version": "04032023",
          "code": "200033",
          "display": "carvedilol 25 MG Oral Tablet"
        } ]
      },
      "subject": {
        "reference": "Patient/dd4e465a-3796-4d5d-af53-3e2ab1e4041b"
      },
      "authoredOn": "2025-02-01T12:00:00+00:00",
      "requester": {
        "reference": "Practitioner/634985967431341341"
      },
      "reasonCode": [ {
        "coding": [ {
          "system": "http://snomed.info/sct",
          "version": "http://snomed.info/sct/731000124108/version/20240301",
          "code": "406149000",
          "display": "Medication declined (situation)"
        } ]
      } ]
    },
    "request": {
      "method": "POST",
      "url": "MedicationRequest/346346431316343413"
    }
  }, {
    "fullUrl": "https://madie.cms.gov/Practitioner/634985967431341341",
    "resource": {
      "resourceType": "Practitioner",
      "id": "634985967431341341",
      "meta": {
        "profile": [ "http://hl7.org/fhir/us/qicore/StructureDefinition/qicore-practitioner" ]
      },
      "identifier": [ {
        "use": "temp",
        "system": "urn:oid:2.16.840.1.113883.4.336",
        "value": "Practitioner-45"
      } ],
      "active": true,
      "name": [ {
        "family": "Strangelove",
        "given": [ "Adam" ],
        "prefix": [ "Dr" ]
      } ],
      "qualification": [ {
        "identifier": [ {
          "system": "http://example.org/UniversityIdentifier",
          "value": "12345"
        } ],
        "code": {
          "coding": [ {
            "system": "http://terminology.hl7.org/CodeSystem/v2-0360",
            "version": "2.7",
            "code": "BS",
            "display": "Bachelor of Science"
          } ],
          "text": "Bachelor of Science"
        },
        "period": {
          "start": "1995"
        },
        "issuer": {
          "display": "Example University"
        }
      } ]
    },
    "request": {
      "method": "POST",
      "url": "Practitioner/634985967431341341"
    }
  }, {
    "fullUrl": "https://madie.cms.gov/Procedure/34196496313131436645",
    "resource": {
      "resourceType": "Procedure",
      "id": "34196496313131436645",
      "meta": {
        "profile": [ "http://hl7.org/fhir/us/qicore/StructureDefinition/qicore-procedure" ]
      },
      "extension": [ {
        "url": "http://hl7.org/fhir/us/qicore/StructureDefinition/qicore-recorded",
        "valueDateTime": "2025-02-01T12:00:00+00:00"
      } ],
      "status": "completed",
      "code": {
        "coding": [ {
          "system": "http://www.ama-assn.org/go/cpt",
          "version": "2024",
          "code": "33536"
        } ]
      },
      "subject": {
        "reference": "Patient/dd4e465a-3796-4d5d-af53-3e2ab1e4041b"
      },
      "performedPeriod": {
        "start": "2025-02-01T12:00:00+00:00",
        "end": "2025-02-01T12:00:00+00:00"
      }
    },
    "request": {
      "method": "POST",
      "url": "Procedure/34196496313131436645"
    }
  }, {
    "fullUrl": "https://madie.cms.gov/MeasureReport/3920dcd6-800a-407f-89ef-3891a39e022c",
    "resource": {
      "resourceType": "MeasureReport",
      "id": "3920dcd6-800a-407f-89ef-3891a39e022c",
      "meta": {
        "profile": [ "http://hl7.org/fhir/us/cqfmeasures/StructureDefinition/test-case-cqfm" ]
      },
      "contained": [ {
        "resourceType": "Parameters",
        "id": "36dd935e-6f57-4bb7-ab8d-1b740d7ceca2-parameters",
        "parameter": [ {
          "name": "subject",
          "valueString": "dd4e465a-3796-4d5d-af53-3e2ab1e4041b"
        } ]
      } ],
      "extension": [ {
        "url": "http://hl7.org/fhir/us/cqfmeasures/StructureDefinition/cqfm-inputParameters",
        "valueReference": {
          "reference": "#36dd935e-6f57-4bb7-ab8d-1b740d7ceca2-parameters"
        }
      }, {
        "url": "http://hl7.org/fhir/us/cqfmeasures/StructureDefinition/cqfm-testCaseDescription",
        "valueMarkdown": "Pt > 18, 2 visits in MP, Severe LVSD onset during MP b4 1st visit, CAD and Cardia Pacer in Situ (both with onset after 2nd visit (next day 12 AM)), and Med not ordered during 1st visit *CQL-Execution Issue 296*,"
      } ],
      "modifierExtension": [ {
        "url": "http://hl7.org/fhir/us/cqfmeasures/StructureDefinition/cqfm-isTestCase",
        "valueBoolean": true
      } ],
      "status": "complete",
      "type": "individual",
      "measure": "https://madie.cms.gov/Measure/CADBetaBlockerTherapyPriorMIorLVSDFHIR",
      "period": {
        "start": "2025-01-01",
        "end": "2025-12-31"
      },
      "group": [ {
        "population": [ {
          "code": {
            "coding": [ {
              "system": "http://terminology.hl7.org/CodeSystem/measure-population",
              "code": "initial-population",
              "display": "Initial Population"
            } ]
          },
          "count": 1
        }, {
          "code": {
            "coding": [ {
              "system": "http://terminology.hl7.org/CodeSystem/measure-population",
              "code": "denominator",
              "display": "Denominator"
            } ]
          },
          "count": 1
        }, {
          "code": {
            "coding": [ {
              "system": "http://terminology.hl7.org/CodeSystem/measure-population",
              "code": "numerator",
              "display": "Numerator"
            } ]
          },
          "count": 0
        }, {
          "code": {
            "coding": [ {
              "system": "http://terminology.hl7.org/CodeSystem/measure-population",
              "code": "denominator-exception",
              "display": "Denominator Exception"
            } ]
          },
          "count": 0
        } ]
      }, {
        "population": [ {
          "code": {
            "coding": [ {
              "system": "http://terminology.hl7.org/CodeSystem/measure-population",
              "code": "initial-population",
              "display": "Initial Population"
            } ]
          },
          "count": 1
        }, {
          "code": {
            "coding": [ {
              "system": "http://terminology.hl7.org/CodeSystem/measure-population",
              "code": "denominator",
              "display": "Denominator"
            } ]
          },
          "count": 0
        }, {
          "code": {
            "coding": [ {
              "system": "http://terminology.hl7.org/CodeSystem/measure-population",
              "code": "numerator",
              "display": "Numerator"
            } ]
          },
          "count": 0
        }, {
          "code": {
            "coding": [ {
              "system": "http://terminology.hl7.org/CodeSystem/measure-population",
              "code": "denominator-exception",
              "display": "Denominator Exception"
            } ]
          },
          "count": 0
        } ]
      } ],
      "evaluatedResource": [ {
        "reference": "https://madie.cms.gov/Patient/dd4e465a-3796-4d5d-af53-3e2ab1e4041b"
      }, {
        "reference": "https://madie.cms.gov/Encounter/341345694634163434"
      }, {
        "reference": "https://madie.cms.gov/Encounter/34645931347324354973"
      }, {
        "reference": "https://madie.cms.gov/Condition/349496313643424243"
      }, {
        "reference": "https://madie.cms.gov/Condition/346459685612341343"
      }, {
        "reference": "https://madie.cms.gov/Condition/35264597641634645345"
      }, {
        "reference": "https://madie.cms.gov/MedicationRequest/346346431316343413"
      }, {
        "reference": "https://madie.cms.gov/Practitioner/634985967431341341"
      }, {
        "reference": "https://madie.cms.gov/Procedure/34196496313131436645"
      } ]
    },
    "request": {
      "method": "POST",
      "url": "MeasureReport/3920dcd6-800a-407f-89ef-3891a39e022c"
    }
  } ]
}