{
  "resourceType": "Bundle",
  "id": "612e6b1a02c62a011f2ec76c",
  "type": "transaction",
  "entry": [ {
    "fullUrl": "https://madie.cms.gov/Patient/c2dfc5ca-96db-4ae2-bbe1-7bfed219cb72",
    "resource": {
      "resourceType": "Patient",
      "id": "c2dfc5ca-96db-4ae2-bbe1-7bfed219cb72",
      "meta": {
        "profile": [ "http://hl7.org/fhir/us/qicore/StructureDefinition/qicore-patient" ]
      },
      "text": {
        "status": "generated",
        "div": "<div xmlns=\"http://www.w3.org/1999/xhtml\"><div class=\"hapiHeaderText\">ProphylaxisDuringFirstED1DayBFAdm <b>NUMERFAIL </b></div><table class=\"hapiPropertyTable\"><tbody><tr><td>Identifier</td><td>4a3cf6afd879a8f9468f9b4b43b7b032</td></tr><tr><td>Date of birth</td><td><span>02 September 2003</span></td></tr></tbody></table></div>"
      },
      "extension": [ {
        "url": "http://hl7.org/fhir/us/core/StructureDefinition/us-core-race",
        "extension": [ {
          "url": "ombCategory",
          "valueCoding": {
            "system": "urn:oid:2.16.840.1.113883.6.238",
            "code": "1002-5",
            "display": "American Indian or Alaska Native",
            "userSelected": true
          }
        }, {
          "url": "text",
          "valueString": "American Indian or Alaska Native"
        } ]
      }, {
        "url": "http://hl7.org/fhir/us/core/StructureDefinition/us-core-ethnicity",
        "extension": [ {
          "url": "ombCategory",
          "valueCoding": {
            "system": "urn:oid:2.16.840.1.113883.6.238",
            "code": "2135-2",
            "display": "Hispanic or Latino",
            "userSelected": true
          }
        }, {
          "url": "text",
          "valueString": "Hispanic or Latino"
        } ]
      } ],
      "identifier": [ {
        "type": {
          "coding": [ {
            "system": "http://terminology.hl7.org/CodeSystem/v2-0203",
            "code": "MR"
          } ]
        },
        "system": "https://bonnie-fhir.healthit.gov/",
        "value": "612e6b1a02c62a011f2ec76c"
      } ],
      "active": true,
      "name": [ {
        "use": "usual",
        "family": "NUMERFail",
        "given": [ "ProphylaxisDuringFirstED1DayBFAdm" ]
      } ],
      "gender": "male",
      "birthDate": "2003-09-02"
    },
    "request": {
      "method": "PUT",
      "url": "Patient/c2dfc5ca-96db-4ae2-bbe1-7bfed219cb72"
    }
  }, {
    "fullUrl": "https://madie.cms.gov/Encounter/5ca62962b8484628b8de1eb6",
    "resource": {
      "resourceType": "Encounter",
      "id": "5ca62962b8484628b8de1eb6",
      "meta": {
        "profile": [ "http://hl7.org/fhir/us/qicore/StructureDefinition/qicore-encounter" ]
      },
      "status": "finished",
      "class": {
        "system": "http://terminology.hl7.org/CodeSystem/v3-ActCode",
        "code": "IMP",
        "display": "inpatient encounter"
      },
      "type": [ {
        "coding": [ {
          "system": "http://snomed.info/sct",
          "code": "183452005"
        } ]
      } ],
      "subject": {
        "reference": "Patient/c2dfc5ca-96db-4ae2-bbe1-7bfed219cb72"
      },
      "period": {
        "start": "2025-09-03T09:40:00+00:00",
        "end": "2025-10-01T12:59:00+00:00"
      }
    },
    "request": {
      "method": "PUT",
      "url": "Encounter/5ca62962b8484628b8de1eb6"
    }
  }, {
    "fullUrl": "https://madie.cms.gov/Encounter/5e28ac849261550000089ca9",
    "resource": {
      "resourceType": "Encounter",
      "id": "5e28ac849261550000089ca9",
      "meta": {
        "profile": [ "http://hl7.org/fhir/us/qicore/StructureDefinition/qicore-encounter" ]
      },
      "status": "finished",
      "class": {
        "system": "http://terminology.hl7.org/CodeSystem/v3-ActCode",
        "code": "EMER",
        "display": "emergency"
      },
      "type": [ {
        "coding": [ {
          "system": "http://snomed.info/sct",
          "code": "4525004"
        } ]
      } ],
      "subject": {
        "reference": "Patient/c2dfc5ca-96db-4ae2-bbe1-7bfed219cb72"
      },
      "period": {
        "start": "2025-09-01T08:00:00+00:00",
        "end": "2025-09-01T09:00:00+00:00"
      }
    },
    "request": {
      "method": "PUT",
      "url": "Encounter/5e28ac849261550000089ca9"
    }
  }, {
    "fullUrl": "https://madie.cms.gov/Encounter/5e28acf69261550000089d17",
    "resource": {
      "resourceType": "Encounter",
      "id": "5e28acf69261550000089d17",
      "meta": {
        "profile": [ "http://hl7.org/fhir/us/qicore/StructureDefinition/qicore-encounter" ]
      },
      "status": "finished",
      "class": {
        "system": "http://terminology.hl7.org/CodeSystem/v3-ActCode",
        "code": "OBSENC",
        "display": "observation encounter"
      },
      "type": [ {
        "coding": [ {
          "system": "http://snomed.info/sct",
          "code": "448851000124103"
        } ]
      } ],
      "subject": {
        "reference": "Patient/c2dfc5ca-96db-4ae2-bbe1-7bfed219cb72"
      },
      "period": {
        "start": "2025-09-01T09:45:00+00:00",
        "end": "2025-09-02T09:00:00+00:00"
      }
    },
    "request": {
      "method": "PUT",
      "url": "Encounter/5e28acf69261550000089d17"
    }
  }, {
    "fullUrl": "https://madie.cms.gov/Encounter/5e28afcb9261550000089da6",
    "resource": {
      "resourceType": "Encounter",
      "id": "5e28afcb9261550000089da6",
      "meta": {
        "profile": [ "http://hl7.org/fhir/us/qicore/StructureDefinition/qicore-encounter" ]
      },
      "status": "finished",
      "class": {
        "system": "http://terminology.hl7.org/CodeSystem/v3-ActCode",
        "code": "EMER",
        "display": "emergency"
      },
      "type": [ {
        "coding": [ {
          "system": "http://snomed.info/sct",
          "code": "4525004"
        } ]
      } ],
      "subject": {
        "reference": "Patient/c2dfc5ca-96db-4ae2-bbe1-7bfed219cb72"
      },
      "period": {
        "start": "2025-09-02T09:15:00+00:00",
        "end": "2025-09-02T09:45:00+00:00"
      }
    },
    "request": {
      "method": "PUT",
      "url": "Encounter/5e28afcb9261550000089da6"
    }
  }, {
    "fullUrl": "https://madie.cms.gov/Coverage/5fa041691c76ba66d99593a9",
    "resource": {
      "resourceType": "Coverage",
      "id": "5fa041691c76ba66d99593a9",
      "status": "active",
      "beneficiary": {
        "reference": "Patient/c2dfc5ca-96db-4ae2-bbe1-7bfed219cb72"
      },
      "period": {
        "start": "2003-09-02T09:00:00+00:00"
      },
      "payor": [ {
        "reference": "Organization/Org-123456"
      } ]
    },
    "request": {
      "method": "PUT",
      "url": "Coverage/5fa041691c76ba66d99593a9"
    }
  }, {
    "fullUrl": "https://madie.cms.gov/MedicationAdministration/5e28af669261550000089d50",
    "resource": {
      "resourceType": "MedicationAdministration",
      "id": "5e28af669261550000089d50",
      "meta": {
        "profile": [ "http://hl7.org/fhir/us/qicore/StructureDefinition/qicore-medicationadministration" ]
      },
      "status": "completed",
      "medicationCodeableConcept": {
        "coding": [ {
          "system": "http://www.nlm.nih.gov/research/umls/rxnorm",
          "code": "861356"
        } ]
      },
      "subject": {
        "reference": "Patient/c2dfc5ca-96db-4ae2-bbe1-7bfed219cb72"
      },
      "effectivePeriod": {
        "start": "2025-09-02T08:15:00+00:00",
        "end": "2025-09-02T08:30:00+00:00"
      }
    },
    "request": {
      "method": "PUT",
      "url": "MedicationAdministration/5e28af669261550000089d50"
    }
  }, {
    "fullUrl": "https://madie.cms.gov/Organization/123456",
    "resource": {
      "resourceType": "Organization",
      "id": "Org-123456",
      "meta": {
        "profile": [ "http://hl7.org/fhir/us/qicore/StructureDefinition/qicore-organization" ]
      },
      "identifier": [ {
        "use": "temp",
        "system": "urn:oid:2.16.840.1.113883.4.4",
        "value": "21-3259825"
      } ],
      "active": true,
      "type": [ {
        "coding": [ {
          "system": "http://terminology.hl7.org/CodeSystem/organization-type",
          "code": "pay",
          "display": "Payer"
        } ]
      } ],
      "name": "Blue Cross Blue Shield of Texas",
      "telecom": [ {
        "system": "phone",
        "value": "(+1) 972-766-6900"
      } ],
      "address": [ {
        "use": "billing",
        "type": "postal",
        "line": [ "P.O. Box 660044" ],
        "city": "Dallas",
        "state": "TX",
        "postalCode": "75266-0044",
        "country": "USA"
      } ]
    },
    "request": {
      "method": "PUT",
      "url": "Organization/Org-123456"
    }
  }, {
    "fullUrl": "https://madie.cms.gov/Practitioner/practitioner-123456",
    "resource": {
      "resourceType": "Practitioner",
      "id": "practitioner-123456",
      "identifier": [ {
        "system": "http://hl7.org/fhir/sid/us-npi",
        "value": "123456"
      } ],
      "name": [ {
        "family": "Evil",
        "prefix": [ "Dr" ]
      } ]
    },
    "request": {
      "method": "PUT",
      "url": "Practitioner/practitioner-123456"
    }
  }, {
    "fullUrl": "https://madie.cms.gov/MeasureReport/1b127977-7028-409e-8065-b152004db114",
    "resource": {
      "resourceType": "MeasureReport",
      "id": "1b127977-7028-409e-8065-b152004db114",
      "meta": {
        "profile": [ "http://hl7.org/fhir/us/cqfmeasures/StructureDefinition/test-case-cqfm" ]
      },
      "contained": [ {
        "resourceType": "Parameters",
        "id": "87175682-049c-45aa-9d00-8ce3c134fc83-parameters",
        "parameter": [ {
          "name": "subject",
          "valueString": "c2dfc5ca-96db-4ae2-bbe1-7bfed219cb72"
        } ]
      } ],
      "extension": [ {
        "url": "http://hl7.org/fhir/us/cqfmeasures/StructureDefinition/cqfm-inputParameters",
        "valueReference": {
          "reference": "#87175682-049c-45aa-9d00-8ce3c134fc83-parameters"
        }
      }, {
        "url": "http://hl7.org/fhir/us/cqfmeasures/StructureDefinition/cqfm-testCaseDescription",
        "valueMarkdown": "ED/outpatient @ 9/1 @8:00 - 9:00 am; feeling sick returned to ED @ 9:15 -9:45 am; admit for observ 9/3  @9:45 -  9/3 @ 9:00 am; then admitted to inpatient on 9/3 @ 9:40. prophylaxis given during the FIRST ED on 1 day bF  2nd ED. SO Fail\n"
      } ],
      "modifierExtension": [ {
        "url": "http://hl7.org/fhir/us/cqfmeasures/StructureDefinition/cqfm-isTestCase",
        "valueBoolean": true
      } ],
      "status": "complete",
      "type": "individual",
      "measure": "https://madie.cms.gov/Measure/VenousThromboembolismProphylaxisFHIR",
      "period": {
        "start": "2025-01-01",
        "end": "2025-12-31"
      },
      "group": [ {
        "population": [ {
          "code": {
            "coding": [ {
              "system": "http://terminology.hl7.org/CodeSystem/measure-population",
              "code": "initial-population",
              "display": "Initial Population"
            } ]
          },
          "count": 1
        }, {
          "code": {
            "coding": [ {
              "system": "http://terminology.hl7.org/CodeSystem/measure-population",
              "code": "denominator",
              "display": "Denominator"
            } ]
          },
          "count": 1
        }, {
          "code": {
            "coding": [ {
              "system": "http://terminology.hl7.org/CodeSystem/measure-population",
              "code": "denominator-exclusion",
              "display": "Denominator Exclusion"
            } ]
          },
          "count": 0
        }, {
          "code": {
            "coding": [ {
              "system": "http://terminology.hl7.org/CodeSystem/measure-population",
              "code": "numerator",
              "display": "Numerator"
            } ]
          },
          "count": 0
        } ]
      } ],
      "evaluatedResource": [ {
        "reference": "Patient/c2dfc5ca-96db-4ae2-bbe1-7bfed219cb72"
      }, {
        "reference": "Encounter/5ca62962b8484628b8de1eb6"
      }, {
        "reference": "Encounter/5e28ac849261550000089ca9"
      }, {
        "reference": "Encounter/5e28acf69261550000089d17"
      }, {
        "reference": "Encounter/5e28afcb9261550000089da6"
      }, {
        "reference": "Coverage/5fa041691c76ba66d99593a9"
      }, {
        "reference": "MedicationAdministration/5e28af669261550000089d50"
      }, {
        "reference": "Organization/Org-123456"
      }, {
        "reference": "Practitioner/practitioner-123456"
      } ]
    },
    "request": {
      "method": "PUT",
      "url": "MeasureReport/1b127977-7028-409e-8065-b152004db114"
    }
  } ]
}