{"resourceType":"Bundle","id":"tests-f028ed8f-f83b-4c77-bb08-2c4df7694a12-bundle","type":"transaction","entry":[{"fullUrl":"https://madie.cms.gov/Patient/f028ed8f-f83b-4c77-bb08-2c4df7694a12","resource":{"resourceType":"Patient","id":"f028ed8f-f83b-4c77-bb08-2c4df7694a12","meta":{"profile":["http://hl7.org/fhir/us/qicore/StructureDefinition/qicore-patient"]},"text":{"status":"generated","div":"<div xmlns=\"http://www.w3.org/1999/xhtml\"><div class=\"hapiHeaderText\">CMOPerf_DayAfterAnes_ProcRvltDT <b>DENEXPASS </b></div><table class=\"hapiPropertyTable\"><tbody><tr><td>Identifier</td><td>0fe0fbaacaf0868ff4d29642725703ce</td></tr><tr><td>Date of birth</td><td><span>03 March 1974</span></td></tr></tbody></table></div>"},"extension":[{"url":"http://hl7.org/fhir/us/core/StructureDefinition/us-core-race","extension":[{"url":"ombCategory","valueCoding":{"system":"urn:oid:2.16.840.1.113883.6.238","code":"1002-5","display":"American Indian or Alaska Native","userSelected":true}},{"url":"text","valueString":"American Indian or Alaska Native"}]},{"url":"http://hl7.org/fhir/us/core/StructureDefinition/us-core-ethnicity","extension":[{"url":"ombCategory","valueCoding":{"system":"urn:oid:2.16.840.1.113883.6.238","code":"2135-2","display":"Hispanic or Latino","userSelected":true}},{"url":"text","valueString":"Hispanic or Latino"}]}],"identifier":[{"type":{"coding":[{"system":"http://terminology.hl7.org/CodeSystem/v2-0203","code":"MR"}]},"system":"https://bonnie-fhir.healthit.gov/","value":"612e6e8702c62a011f2eebda"}],"active":true,"name":[{"use":"usual","family":"DENEXPass","given":["CMOPerf_DayAfterAnes_ProcRvltDT"]}],"gender":"female","birthDate":"1975-03-03"},"request":{"method":"PUT","url":"Patient/f028ed8f-f83b-4c77-bb08-2c4df7694a12"}},{"fullUrl":"https://madie.cms.gov/Encounter/3add96a9-a2a2-4ac7-b26c-02878697eaa7","resource":{"resourceType":"Encounter","id":"3add96a9-a2a2-4ac7-b26c-02878697eaa7","meta":{"profile":["http://hl7.org/fhir/us/qicore/StructureDefinition/qicore-encounter"]},"status":"finished","class":{"system":"http://terminology.hl7.org/CodeSystem/v3-ActCode","code":"IMP","display":"inpatient encounter"},"type":[{"coding":[{"system":"http://snomed.info/sct","code":"8715000"}]}],"subject":{"reference":"Patient/f028ed8f-f83b-4c77-bb08-2c4df7694a12"},"period":{"start":"2026-12-04T08:00:00+00:00","end":"2026-12-30T08:15:00+00:00"},"length":{"value":26.0,"unit":"days"},"location":[{"location":{"reference":"Location/187b11d8-c6fc-4f9b-867d-7fcc6cb8b8d2"},"period":{"start":"2026-12-06T08:00:00.000+00:00","end":"2026-12-12T08:15:00.000+00:00"}}]},"request":{"method":"PUT","url":"Encounter/3add96a9-a2a2-4ac7-b26c-02878697eaa7"}},{"fullUrl":"https://madie.cms.gov/Procedure/031587a7-4d48-4c66-a051-f2e19b8839cf","resource":{"resourceType":"Procedure","id":"031587a7-4d48-4c66-a051-f2e19b8839cf","meta":{"profile":["http://hl7.org/fhir/us/qicore/StructureDefinition/qicore-procedure"]},"extension":[{"url":"http://hl7.org/fhir/us/qicore/StructureDefinition/qicore-recorded","valueDateTime":"2013-12-04T09:35:00-04:00"}],"status":"completed","code":{"coding":[{"system":"http://snomed.info/sct","code":"133918004"}]},"subject":{"reference":"Patient/f028ed8f-f83b-4c77-bb08-2c4df7694a12"},"performedDateTime":"2026-12-08T08:00:00.000+00:00"},"request":{"method":"PUT","url":"Procedure/031587a7-4d48-4c66-a051-f2e19b8839cf"}},{"fullUrl":"https://madie.cms.gov/Coverage/468132c0-0c84-4df0-b4e7-abb8e1fc6d26","resource":{"resourceType":"Coverage","id":"468132c0-0c84-4df0-b4e7-abb8e1fc6d26","status":"active","beneficiary":{"reference":"Patient/f028ed8f-f83b-4c77-bb08-2c4df7694a12"},"period":{"start":"1975-03-03T08:00:00+00:00"},"payor":[{"reference":"Organization/3778262e-e084-4bb5-9a47-1a144735f786"}]},"request":{"method":"PUT","url":"Coverage/468132c0-0c84-4df0-b4e7-abb8e1fc6d26"}},{"fullUrl":"https://madie.cms.gov/Procedure/836a59b9-5a7f-4d97-af1e-c8ceb943a750","resource":{"resourceType":"Procedure","id":"836a59b9-5a7f-4d97-af1e-c8ceb943a750","meta":{"profile":["http://hl7.org/fhir/us/qicore/StructureDefinition/qicore-procedure"]},"extension":[{"url":"http://hl7.org/fhir/us/qicore/StructureDefinition/qicore-recorded","valueDateTime":"2013-12-09T09:35:00-04:00"}],"status":"completed","code":{"coding":[{"system":"http://snomed.info/sct","code":"18946005"}]},"subject":{"reference":"Patient/f028ed8f-f83b-4c77-bb08-2c4df7694a12"},"performedPeriod":{"end":"2026-12-07T11:15:00+00:00"}},"request":{"method":"PUT","url":"Procedure/836a59b9-5a7f-4d97-af1e-c8ceb943a750"}},{"fullUrl":"https://madie.cms.gov/Location/187b11d8-c6fc-4f9b-867d-7fcc6cb8b8d2","resource":{"resourceType":"Location","id":"187b11d8-c6fc-4f9b-867d-7fcc6cb8b8d2","meta":{"profile":["http://hl7.org/fhir/us/qicore/StructureDefinition/qicore-location"]},"identifier":[{"use":"usual","system":"http://exampleoflocation.com","value":"B1-S.F2"}],"name":"Medical Surgical East, first floor","type":[{"coding":[{"system":"https://www.cdc.gov/nhsn/cdaportal/terminology/codesystem/hsloc.html","code":"1025-6","display":"Trauma Critical Care","userSelected":true}]}]},"request":{"method":"PUT","url":"Location/187b11d8-c6fc-4f9b-867d-7fcc6cb8b8d2"}},{"fullUrl":"https://madie.cms.gov/Organization/d2d0c96b-b88a-4350-9d19-aa870ef18b72","resource":{"resourceType":"Organization","id":"3778262e-e084-4bb5-9a47-1a144735f786","meta":{"profile":["http://hl7.org/fhir/us/qicore/StructureDefinition/qicore-organization"]},"identifier":[{"use":"temp","system":"urn:oid:2.16.840.1.113883.4.4","value":"21-3259825"}],"active":true,"type":[{"coding":[{"system":"http://terminology.hl7.org/CodeSystem/organization-type","code":"pay","display":"Payer"}]}],"name":"Blue Cross Blue Shield of Texas","telecom":[{"system":"phone","value":"(+1) 972-766-6900"}],"address":[{"use":"billing","type":"postal","line":["P.O. Box 660044"],"city":"Dallas","state":"TX","postalCode":"75266-0044","country":"USA"}]},"request":{"method":"PUT","url":"Organization/3778262e-e084-4bb5-9a47-1a144735f786"}},{"fullUrl":"https://madie.cms.gov/Practitioner/95e1e15b-4bfd-460e-bbc0-a4f8c88c76e8","resource":{"resourceType":"Practitioner","id":"95e1e15b-4bfd-460e-bbc0-a4f8c88c76e8","identifier":[{"system":"http://hl7.org/fhir/sid/us-npi","value":"123456"}],"name":[{"family":"Evil","prefix":["Dr"]}]},"request":{"method":"PUT","url":"Practitioner/95e1e15b-4bfd-460e-bbc0-a4f8c88c76e8"}},{"fullUrl":"https://madie.cms.gov/MeasureReport/fea82612-8c42-4c81-981d-d8dcd0986cf4","resource":{"resourceType":"MeasureReport","id":"fea82612-8c42-4c81-981d-d8dcd0986cf4","meta":{"profile":["http://hl7.org/fhir/us/cqfmeasures/StructureDefinition/test-case-cqfm"]},"contained":[{"resourceType":"Parameters","id":"d1648831-3e7b-40e8-b398-94c40a98f275-parameters","parameter":[{"name":"subject","valueString":"f028ed8f-f83b-4c77-bb08-2c4df7694a12"}]}],"extension":[{"url":"http://hl7.org/fhir/us/cqfmeasures/StructureDefinition/cqfm-inputParameters","valueReference":{"reference":"#d1648831-3e7b-40e8-b398-94c40a98f275-parameters"}},{"url":"http://hl7.org/fhir/us/cqfmeasures/StructureDefinition/cqfm-testCaseDescription","valueMarkdown":"comfort measures starts after neuraxial anesthesia by using Procedure relevant datetime. Using RevelantDT for both CMP and anethesia\n"}],"modifierExtension":[{"url":"http://hl7.org/fhir/us/cqfmeasures/StructureDefinition/cqfm-isTestCase","valueBoolean":true}],"status":"complete","type":"individual","measure":"https://madie.cms.gov/Measure/CMS190VTEProphylaxisICUFHIR","period":{"start":"2026-01-01","end":"2026-12-31"},"group":[{"population":[{"code":{"coding":[{"system":"http://terminology.hl7.org/CodeSystem/measure-population","code":"initial-population","display":"Initial Population"}]},"count":1},{"code":{"coding":[{"system":"http://terminology.hl7.org/CodeSystem/measure-population","code":"denominator","display":"Denominator"}]},"count":1},{"code":{"coding":[{"system":"http://terminology.hl7.org/CodeSystem/measure-population","code":"denominator-exclusion","display":"Denominator Exclusion"}]},"count":1},{"code":{"coding":[{"system":"http://terminology.hl7.org/CodeSystem/measure-population","code":"numerator","display":"Numerator"}]},"count":0},{"code":{"coding":[{"system":"http://terminology.hl7.org/CodeSystem/measure-population","code":"denominator-exception","display":"Denominator Exception"}]},"count":0}]}]},"request":{"method":"PUT","url":"MeasureReport/fea82612-8c42-4c81-981d-d8dcd0986cf4"}}]}