{"resourceType":"Bundle","id":"tests-52d1f4f3-14a0-4eed-a0c2-334b8146b117-bundle","type":"transaction","entry":[{"fullUrl":"https://madie.cms.gov/Patient/52d1f4f3-14a0-4eed-a0c2-334b8146b117","resource":{"resourceType":"Patient","id":"52d1f4f3-14a0-4eed-a0c2-334b8146b117","meta":{"profile":["http://hl7.org/fhir/us/qicore/StructureDefinition/qicore-patient"]},"extension":[{"url":"http://hl7.org/fhir/us/core/StructureDefinition/us-core-race","extension":[{"url":"ombCategory","valueCoding":{"system":"urn:oid:2.16.840.1.113883.6.238","code":"2028-9","display":"Asian"}},{"url":"text","valueString":"Asian"}]},{"url":"http://hl7.org/fhir/us/core/StructureDefinition/us-core-ethnicity","extension":[{"url":"ombCategory","valueCoding":{"system":"urn:oid:2.16.840.1.113883.6.238","code":"2135-2","display":"Hispanic or Latino"}},{"url":"text","valueString":"Hispanic or Latino"}]}],"identifier":[{"system":"http://hospital.smarthealthit.org","value":"999999995"}],"name":[{"family":"Bertha","given":["Betty"]}],"gender":"female","birthDate":"2007-12-31"},"request":{"method":"PUT","url":"Patient/52d1f4f3-14a0-4eed-a0c2-334b8146b117"}},{"fullUrl":"https://madie.cms.gov/Encounter/Encounter-31","resource":{"resourceType":"Encounter","id":"Encounter-31","meta":{"profile":["http://hl7.org/fhir/us/qicore/StructureDefinition/qicore-encounter"]},"status":"finished","class":{"system":"http://terminology.hl7.org/CodeSystem/v3-ActCode","code":"AMB","display":"ambulatory"},"type":[{"coding":[{"system":"http://snomed.info/sct","code":"185463005","display":"Visit out of hours (procedure)"}]}],"subject":{"reference":"Patient/52d1f4f3-14a0-4eed-a0c2-334b8146b117"},"period":{"start":"2025-01-01T00:00:00.000Z","end":"2025-01-01T00:00:00.000Z"}},"request":{"method":"PUT","url":"Encounter/Encounter-31"}},{"fullUrl":"https://madie.cms.gov/Condition/Condition-31","resource":{"resourceType":"Condition","id":"Condition-31","meta":{"profile":["http://hl7.org/fhir/us/qicore/StructureDefinition/qicore-condition"]},"clinicalStatus":{"coding":[{"system":"http://terminology.hl7.org/CodeSystem/condition-clinical","code":"active"}]},"category":[{"coding":[{"system":"http://terminology.hl7.org/CodeSystem/condition-category","code":"problem-list-item","display":"Problem List Item"}]}],"code":{"coding":[{"system":"http://snomed.info/sct","code":"102781000119107","display":"Sensory neuropathy due to type 1 diabetes mellitus (disorder)"}]},"subject":{"reference":"Patient/52d1f4f3-14a0-4eed-a0c2-334b8146b117"},"onsetDateTime":"2025-01-01T00:00:00.000Z"},"request":{"method":"PUT","url":"Condition/Condition-31"}},{"fullUrl":"https://madie.cms.gov/Condition/Condition-31.1","resource":{"resourceType":"Condition","id":"Condition-31.1","meta":{"profile":["http://hl7.org/fhir/us/qicore/StructureDefinition/qicore-condition"]},"clinicalStatus":{"coding":[{"system":"http://terminology.hl7.org/CodeSystem/condition-clinical","code":"active"}]},"category":[{"coding":[{"system":"http://terminology.hl7.org/CodeSystem/condition-category","code":"problem-list-item","display":"Problem List Item"}]}],"code":{"coding":[{"system":"http://snomed.info/sct","code":"193349004","display":"Preproliferative retinopathy due to diabetes mellitus (disorder)"}]},"subject":{"reference":"Patient/52d1f4f3-14a0-4eed-a0c2-334b8146b117"},"onsetDateTime":"2026-01-01T00:00:00.000Z"},"request":{"method":"PUT","url":"Condition/Condition-31.1"}},{"fullUrl":"https://madie.cms.gov/Observation/Observation-31","resource":{"resourceType":"Observation","id":"Observation-31","meta":{"profile":["http://hl7.org/fhir/us/qicore/StructureDefinition/qicore-observation"]},"status":"final","category":[{"coding":[{"system":"http://terminology.hl7.org/CodeSystem/observation-category","code":"survey"}]}],"code":{"coding":[{"system":"http://snomed.info/sct","code":"252779009","display":"Single bright white flash electroretinography (procedure)"}]},"subject":{"reference":"Patient/52d1f4f3-14a0-4eed-a0c2-334b8146b117"},"effectivePeriod":{"start":"2023-12-31T23:59:59.000Z","end":"2023-12-31T23:59:59.000Z"}},"request":{"method":"PUT","url":"Observation/Observation-31"}},{"fullUrl":"https://madie.cms.gov/MeasureReport/1540dffe-36f6-4043-a76e-b8ee1251535e","resource":{"resourceType":"MeasureReport","id":"1540dffe-36f6-4043-a76e-b8ee1251535e","meta":{"profile":["http://hl7.org/fhir/us/cqfmeasures/StructureDefinition/test-case-cqfm"]},"contained":[{"resourceType":"Parameters","id":"ea69ff45-3ae9-4b0a-8f59-5d80a7284e6f-parameters","parameter":[{"name":"subject","valueString":"52d1f4f3-14a0-4eed-a0c2-334b8146b117"}]}],"extension":[{"url":"http://hl7.org/fhir/us/cqfmeasures/StructureDefinition/cqfm-inputParameters","valueReference":{"reference":"#ea69ff45-3ae9-4b0a-8f59-5d80a7284e6f-parameters"}},{"url":"http://hl7.org/fhir/us/cqfmeasures/StructureDefinition/cqfm-testCaseDescription","valueMarkdown":"Patient 18yo w/ an Office Visit Encounter, Diabetes Condition ending 1/1 during the MP, and Retinopathy Condition 1/1 of the year after the MP, with an Eye Exam Observation 1/1 of the year before the MP."}],"modifierExtension":[{"url":"http://hl7.org/fhir/us/cqfmeasures/StructureDefinition/cqfm-isTestCase","valueBoolean":true}],"status":"complete","type":"individual","measure":"https://madie.cms.gov/Measure/DiabetesEyeExamFHIR","period":{"start":"2025-01-01","end":"2025-12-31"},"group":[{"population":[{"code":{"coding":[{"system":"http://terminology.hl7.org/CodeSystem/measure-population","code":"initial-population","display":"Initial Population"}]},"count":1},{"code":{"coding":[{"system":"http://terminology.hl7.org/CodeSystem/measure-population","code":"denominator","display":"Denominator"}]},"count":1},{"code":{"coding":[{"system":"http://terminology.hl7.org/CodeSystem/measure-population","code":"denominator-exclusion","display":"Denominator Exclusion"}]},"count":0},{"code":{"coding":[{"system":"http://terminology.hl7.org/CodeSystem/measure-population","code":"numerator","display":"Numerator"}]},"count":0}]}],"evaluatedResource":[{"reference":"Patient/52d1f4f3-14a0-4eed-a0c2-334b8146b117"},{"reference":"Encounter/Encounter-31"},{"reference":"Condition/Condition-31"},{"reference":"Condition/Condition-31.1"},{"reference":"Observation/Observation-31"}]},"request":{"method":"PUT","url":"MeasureReport/1540dffe-36f6-4043-a76e-b8ee1251535e"}}]}