{"resourceType":"Bundle","id":"tests-0c9d7ae1-4643-4c50-bc48-0274a3f2d234-bundle","type":"transaction","entry":[{"fullUrl":"https://madie.cms.gov/Patient/0c9d7ae1-4643-4c50-bc48-0274a3f2d234","resource":{"resourceType":"Patient","id":"0c9d7ae1-4643-4c50-bc48-0274a3f2d234","meta":{"profile":["http://hl7.org/fhir/us/qicore/StructureDefinition/qicore-patient"]},"extension":[{"url":"http://hl7.org/fhir/us/core/StructureDefinition/us-core-race","extension":[{"url":"ombCategory","valueCoding":{"system":"urn:oid:2.16.840.1.113883.6.238","code":"2028-9","display":"Asian"}},{"url":"text","valueString":"Asian"}]},{"url":"http://hl7.org/fhir/us/core/StructureDefinition/us-core-ethnicity","extension":[{"url":"ombCategory","valueCoding":{"system":"urn:oid:2.16.840.1.113883.6.238","code":"2135-2","display":"Hispanic or Latino"}},{"url":"text","valueString":"Hispanic or Latino"}]}],"identifier":[{"system":"http://hospital.smarthealthit.org","value":"999999995"}],"name":[{"family":"Bertha","given":["Betty"]}],"gender":"female","birthDate":"1959-12-31"},"request":{"method":"PUT","url":"Patient/0c9d7ae1-4643-4c50-bc48-0274a3f2d234"}},{"fullUrl":"https://madie.cms.gov/Encounter/Encounter-11","resource":{"resourceType":"Encounter","id":"3c42cf4a-6ee5-4372-8823-4c12ca1a44af","meta":{"profile":["http://hl7.org/fhir/us/qicore/StructureDefinition/qicore-encounter"]},"status":"finished","class":{"system":"http://terminology.hl7.org/CodeSystem/v3-ActCode","code":"AMB","display":"ambulatory"},"type":[{"coding":[{"system":"http://snomed.info/sct","code":"185463005","display":"Visit out of hours (procedure)"}]}],"subject":{"reference":"Patient/0c9d7ae1-4643-4c50-bc48-0274a3f2d234"},"period":{"start":"2025-01-01T00:00:00.000Z","end":"2025-01-01T00:00:00.000Z"}},"request":{"method":"PUT","url":"Encounter/3c42cf4a-6ee5-4372-8823-4c12ca1a44af"}},{"fullUrl":"https://madie.cms.gov/Condition/Condition-11","resource":{"resourceType":"Condition","id":"07f9c6c4-7d52-40cc-9f97-bcf450570f17","meta":{"profile":["http://hl7.org/fhir/us/qicore/StructureDefinition/qicore-condition"]},"clinicalStatus":{"coding":[{"system":"http://terminology.hl7.org/CodeSystem/condition-clinical","code":"active"}]},"category":[{"coding":[{"system":"http://terminology.hl7.org/CodeSystem/condition-category","code":"problem-list-item","display":"Problem List Item"}]}],"code":{"coding":[{"system":"http://snomed.info/sct","code":"102781000119107","display":"Sensory neuropathy due to type 1 diabetes mellitus (disorder)"}]},"subject":{"reference":"Patient/0c9d7ae1-4643-4c50-bc48-0274a3f2d234"},"onsetDateTime":"2025-01-01T00:00:00.000Z"},"request":{"method":"PUT","url":"Condition/07f9c6c4-7d52-40cc-9f97-bcf450570f17"}},{"fullUrl":"https://madie.cms.gov/Encounter/Encounter-11.1","resource":{"resourceType":"Encounter","id":"7168dd54-db43-4b1f-b40e-517b91f99222","meta":{"profile":["http://hl7.org/fhir/us/qicore/StructureDefinition/qicore-encounter"]},"status":"finished","class":{"system":"http://terminology.hl7.org/CodeSystem/v3-ActCode","code":"AMB","display":"ambulatory"},"type":[{"coding":[{"system":"http://snomed.info/sct","code":"10378005","display":"Hospital admission, emergency, from emergency room, accidental injury (procedure)"}]}],"subject":{"reference":"Patient/0c9d7ae1-4643-4c50-bc48-0274a3f2d234"},"period":{"start":"2024-01-01T00:00:00.000Z","end":"2024-01-01T00:00:00.000Z"},"diagnosis":[{"condition":{"reference":"Condition/11.1"}}]},"request":{"method":"PUT","url":"Encounter/7168dd54-db43-4b1f-b40e-517b91f99222"}},{"fullUrl":"https://madie.cms.gov/Condition/11.1","resource":{"resourceType":"Condition","id":"b194d166-004c-4493-8f8d-907e9738ce2a","meta":{"profile":["http://hl7.org/fhir/us/qicore/StructureDefinition/qicore-condition"]},"clinicalStatus":{"coding":[{"system":"http://terminology.hl7.org/CodeSystem/condition-clinical","code":"active"}]},"category":[{"coding":[{"system":"http://terminology.hl7.org/CodeSystem/condition-category","code":"problem-list-item","display":"Problem List Item"}]}],"code":{"coding":[{"system":"http://snomed.info/sct","code":"100721000119109","display":"High grade astrocytoma of brain (disorder)"}]},"subject":{"reference":"Patient/0c9d7ae1-4643-4c50-bc48-0274a3f2d234"},"onsetDateTime":"2025-01-01T00:00:00.000Z"},"request":{"method":"PUT","url":"Condition/b194d166-004c-4493-8f8d-907e9738ce2a"}},{"fullUrl":"https://madie.cms.gov/DeviceRequest/DeviceRequest-11","resource":{"resourceType":"DeviceRequest","id":"540a46a7-247d-4a10-a86d-aade119cf4e0","meta":{"profile":["http://hl7.org/fhir/us/qicore/StructureDefinition/qicore-devicerequest"]},"modifierExtension":[{"url":"http://hl7.org/fhir/us/qicore/StructureDefinition/qicore-doNotPeform","valueBoolean":false}],"status":"completed","intent":"order","codeCodeableConcept":{"coding":[{"system":"http://snomed.info/sct","code":"183240000","display":"Self-propelled wheelchair (physical object)"}]},"subject":{"reference":"Patient/0c9d7ae1-4643-4c50-bc48-0274a3f2d234"},"authoredOn":"2025-01-01T00:00:00.000Z"},"request":{"method":"PUT","url":"DeviceRequest/540a46a7-247d-4a10-a86d-aade119cf4e0"}},{"fullUrl":"https://madie.cms.gov/MeasureReport/8c116e5a-4d5a-4bb0-9ecd-81d5cc230ee2","resource":{"resourceType":"MeasureReport","id":"8c116e5a-4d5a-4bb0-9ecd-81d5cc230ee2","meta":{"profile":["http://hl7.org/fhir/us/cqfmeasures/StructureDefinition/test-case-cqfm"]},"contained":[{"resourceType":"Parameters","id":"1e809e88-ad62-4d5e-92e7-be3775b76e15-parameters","parameter":[{"name":"subject","valueString":"0c9d7ae1-4643-4c50-bc48-0274a3f2d234"}]}],"extension":[{"url":"http://hl7.org/fhir/us/cqfmeasures/StructureDefinition/cqfm-inputParameters","valueReference":{"reference":"#1e809e88-ad62-4d5e-92e7-be3775b76e15-parameters"}},{"url":"http://hl7.org/fhir/us/cqfmeasures/StructureDefinition/cqfm-testCaseDescription","valueMarkdown":"Patient 66yo w/ an Office Visit  Encounter 1/1 of the MP, Diabetes Condition ending 1/1 during the MP, & an Advanced Illness & Frailty Encounter that starts on 1/1 of the year before the MP."}],"modifierExtension":[{"url":"http://hl7.org/fhir/us/cqfmeasures/StructureDefinition/cqfm-isTestCase","valueBoolean":true}],"status":"complete","type":"individual","measure":"https://madie.cms.gov/Measure/DiabetesEyeExamFHIR","period":{"start":"2025-01-01","end":"2025-12-31"},"group":[{"population":[{"code":{"coding":[{"system":"http://terminology.hl7.org/CodeSystem/measure-population","code":"initial-population","display":"Initial Population"}]},"count":1},{"code":{"coding":[{"system":"http://terminology.hl7.org/CodeSystem/measure-population","code":"denominator","display":"Denominator"}]},"count":1},{"code":{"coding":[{"system":"http://terminology.hl7.org/CodeSystem/measure-population","code":"denominator-exclusion","display":"Denominator Exclusion"}]},"count":1},{"code":{"coding":[{"system":"http://terminology.hl7.org/CodeSystem/measure-population","code":"numerator","display":"Numerator"}]},"count":0}]}]},"request":{"method":"PUT","url":"MeasureReport/8c116e5a-4d5a-4bb0-9ecd-81d5cc230ee2"}}]}