{
  "resourceType": "Bundle",
  "id": "Patient-15-DENEXPass-LupusDurMP",
  "type": "transaction",
  "entry": [ {
    "fullUrl": "https://madie.cms.gov/Patient/47e993ec-93a7-4c74-81c6-850c67897e7a",
    "resource": {
      "resourceType": "Patient",
      "id": "47e993ec-93a7-4c74-81c6-850c67897e7a",
      "meta": {
        "profile": [ "http://hl7.org/fhir/us/qicore/StructureDefinition/qicore-patient" ]
      },
      "extension": [ {
        "url": "http://hl7.org/fhir/us/core/StructureDefinition/us-core-race",
        "extension": [ {
          "url": "ombCategory",
          "valueCoding": {
            "system": "urn:oid:2.16.840.1.113883.6.238",
            "code": "2028-9",
            "display": "Asian"
          }
        }, {
          "url": "text",
          "valueString": "Asian"
        } ]
      }, {
        "url": "http://hl7.org/fhir/us/core/StructureDefinition/us-core-ethnicity",
        "extension": [ {
          "url": "ombCategory",
          "valueCoding": {
            "system": "urn:oid:2.16.840.1.113883.6.238",
            "code": "2135-2",
            "display": "Hispanic or Latino"
          }
        }, {
          "url": "text",
          "valueString": "Hispanic or Latino"
        } ]
      } ],
      "identifier": [ {
        "system": "http://hospital.smarthealthit.org",
        "value": "999999995"
      } ],
      "name": [ {
        "family": "Bertha",
        "given": [ "Betty" ]
      } ],
      "gender": "female",
      "birthDate": "1975-01-01"
    },
    "request": {
      "method": "POST",
      "url": "Patient/47e993ec-93a7-4c74-81c6-850c67897e7a"
    }
  }, {
    "fullUrl": "https://madie.cms.gov/Encounter/Encounter-15",
    "resource": {
      "resourceType": "Encounter",
      "id": "Encounter-15",
      "meta": {
        "profile": [ "http://hl7.org/fhir/us/qicore/StructureDefinition/qicore-encounter" ]
      },
      "status": "finished",
      "class": {
        "system": "http://terminology.hl7.org/CodeSystem/v3-ActCode",
        "code": "AMB",
        "display": "ambulatory"
      },
      "type": [ {
        "coding": [ {
          "system": "http://snomed.info/sct",
          "code": "185317003",
          "display": "Telephone encounter (procedure)"
        } ]
      } ],
      "subject": {
        "reference": "Patient/47e993ec-93a7-4c74-81c6-850c67897e7a"
      },
      "period": {
        "start": "2025-01-01T00:00:00.000Z",
        "end": "2025-01-01T01:15:00.000Z"
      }
    },
    "request": {
      "method": "POST",
      "url": "Encounter/Encounter-15"
    }
  }, {
    "fullUrl": "https://madie.cms.gov/Condition/Condition-15",
    "resource": {
      "resourceType": "Condition",
      "id": "Condition-15",
      "meta": {
        "profile": [ "http://hl7.org/fhir/us/qicore/StructureDefinition/qicore-condition" ]
      },
      "clinicalStatus": {
        "coding": [ {
          "system": "http://terminology.hl7.org/CodeSystem/condition-clinical",
          "code": "active"
        } ]
      },
      "category": [ {
        "coding": [ {
          "system": "http://terminology.hl7.org/CodeSystem/condition-category",
          "code": "problem-list-item",
          "display": "Problem List Item"
        } ]
      } ],
      "code": {
        "coding": [ {
          "system": "http://snomed.info/sct",
          "code": "19682006",
          "display": "Lupus hepatitis (disorder)"
        } ]
      },
      "subject": {
        "reference": "Patient/47e993ec-93a7-4c74-81c6-850c67897e7a"
      },
      "onsetDateTime": "2025-12-31T23:59:00.000Z"
    },
    "request": {
      "method": "POST",
      "url": "Condition/Condition-15"
    }
  }, {
    "fullUrl": "https://madie.cms.gov/MeasureReport/a3f0657a-788f-4153-b860-245f679b6d5e",
    "resource": {
      "resourceType": "MeasureReport",
      "id": "a3f0657a-788f-4153-b860-245f679b6d5e",
      "meta": {
        "profile": [ "http://hl7.org/fhir/us/cqfmeasures/StructureDefinition/test-case-cqfm" ]
      },
      "contained": [ {
        "resourceType": "Parameters",
        "id": "649bb2e8-bca8-497b-8eb9-73dc744d4b49-parameters",
        "parameter": [ {
          "name": "subject",
          "valueString": "47e993ec-93a7-4c74-81c6-850c67897e7a"
        } ]
      } ],
      "extension": [ {
        "url": "http://hl7.org/fhir/us/cqfmeasures/StructureDefinition/cqfm-inputParameters",
        "valueReference": {
          "reference": "#649bb2e8-bca8-497b-8eb9-73dc744d4b49-parameters"
        }
      }, {
        "url": "http://hl7.org/fhir/us/cqfmeasures/StructureDefinition/cqfm-testCaseDescription",
        "valueMarkdown": "Active lupus diagnosis during the MP."
      } ],
      "modifierExtension": [ {
        "url": "http://hl7.org/fhir/us/cqfmeasures/StructureDefinition/cqfm-isTestCase",
        "valueBoolean": true
      } ],
      "status": "complete",
      "type": "individual",
      "measure": "https://madie.cms.gov/Measure/AppropriateDXAScansForWomenUnder65FHIR",
      "period": {
        "start": "2025-01-01",
        "end": "2025-12-31"
      },
      "group": [ {
        "population": [ {
          "code": {
            "coding": [ {
              "system": "http://terminology.hl7.org/CodeSystem/measure-population",
              "code": "initial-population",
              "display": "Initial Population"
            } ]
          },
          "count": 1
        }, {
          "code": {
            "coding": [ {
              "system": "http://terminology.hl7.org/CodeSystem/measure-population",
              "code": "denominator",
              "display": "Denominator"
            } ]
          },
          "count": 1
        }, {
          "code": {
            "coding": [ {
              "system": "http://terminology.hl7.org/CodeSystem/measure-population",
              "code": "denominator-exclusion",
              "display": "Denominator Exclusion"
            } ]
          },
          "count": 1
        }, {
          "code": {
            "coding": [ {
              "system": "http://terminology.hl7.org/CodeSystem/measure-population",
              "code": "numerator",
              "display": "Numerator"
            } ]
          },
          "count": 0
        }, {
          "code": {
            "coding": [ {
              "system": "http://terminology.hl7.org/CodeSystem/measure-population",
              "code": "numerator-exclusion",
              "display": "Numerator Exclusion"
            } ]
          },
          "count": 0
        } ]
      } ],
      "evaluatedResource": [ {
        "reference": "https://madie.cms.gov/Patient/47e993ec-93a7-4c74-81c6-850c67897e7a"
      }, {
        "reference": "https://madie.cms.gov/Encounter/Encounter-15"
      }, {
        "reference": "https://madie.cms.gov/Condition/Condition-15"
      } ]
    },
    "request": {
      "method": "POST",
      "url": "MeasureReport/a3f0657a-788f-4153-b860-245f679b6d5e"
    }
  } ]
}