{"resourceType":"Bundle","id":"tests-fba66844-a0b7-4a8b-a33b-d75df55e9fea-bundle","type":"transaction","entry":[{"fullUrl":"https://madie.cms.gov/Patient/fba66844-a0b7-4a8b-a33b-d75df55e9fea","resource":{"resourceType":"Patient","id":"fba66844-a0b7-4a8b-a33b-d75df55e9fea","meta":{"profile":["http://hl7.org/fhir/us/qicore/StructureDefinition/qicore-patient"]},"text":{"status":"generated","div":"<div xmlns=\"http://www.w3.org/1999/xhtml\"><div class=\"hapiHeaderText\">MedTPAdurObs_ED&lt;1hrObs&lt;1hrBFEnc <b>DENEXPASS </b></div><table class=\"hapiPropertyTable\"><tbody><tr><td>Identifier</td><td>1849d3434d2b47f16c7674f9526a9103bbee1b7e9de727db2be8290bb8155111</td></tr><tr><td>Date of birth</td><td><span>26 September 1975</span></td></tr></tbody></table></div>"},"extension":[{"url":"http://hl7.org/fhir/us/core/StructureDefinition/us-core-race","extension":[{"url":"ombCategory","valueCoding":{"system":"urn:oid:2.16.840.1.113883.6.238","code":"2054-5","display":"Black or African American","userSelected":true}},{"url":"text","valueString":"Black or African American"}]},{"url":"http://hl7.org/fhir/us/core/StructureDefinition/us-core-ethnicity","extension":[{"url":"ombCategory","valueCoding":{"system":"urn:oid:2.16.840.1.113883.6.238","code":"2186-5","display":"Not Hispanic or Latino","userSelected":true}},{"url":"text","valueString":"Not Hispanic or Latino"}]}],"identifier":[{"type":{"coding":[{"system":"http://terminology.hl7.org/CodeSystem/v2-0203","code":"MR"}]},"system":"https://bonnie-fhir.healthit.gov/","value":"60f82c2f98086b570510e29d"}],"active":true,"name":[{"use":"usual","family":"DENEXPass","given":["MedTPAdurObs_ED<1hrObs<1hrBFEnc"]}],"gender":"female","birthDate":"1975-09-26"},"request":{"method":"PUT","url":"Patient/fba66844-a0b7-4a8b-a33b-d75df55e9fea"}},{"fullUrl":"https://madie.cms.gov/Encounter/5c954894b848462de0ae62ae","resource":{"resourceType":"Encounter","id":"5c954894b848462de0ae62ae","meta":{"profile":["http://hl7.org/fhir/us/qicore/StructureDefinition/qicore-encounter"]},"status":"finished","class":{"system":"http://terminology.hl7.org/CodeSystem/v3-ActCode","code":"EMER","display":"emergency"},"type":[{"coding":[{"system":"http://snomed.info/sct","code":"4525004"}]}],"subject":{"reference":"Patient/fba66844-a0b7-4a8b-a33b-d75df55e9fea"},"period":{"start":"2025-10-10T06:00:00+00:00","end":"2025-10-10T06:30:00+00:00"},"length":{"value":0.0,"unit":"days"}},"request":{"method":"PUT","url":"Encounter/5c954894b848462de0ae62ae"}},{"fullUrl":"https://madie.cms.gov/Encounter/5c954894b848462de0ae62af","resource":{"resourceType":"Encounter","id":"5c954894b848462de0ae62af","meta":{"profile":["http://hl7.org/fhir/us/qicore/StructureDefinition/qicore-encounter"]},"status":"finished","class":{"system":"http://terminology.hl7.org/CodeSystem/v3-ActCode","code":"OBSENC","display":"observation encounter"},"type":[{"coding":[{"system":"http://snomed.info/sct","code":"448851000124103"}]}],"subject":{"reference":"Patient/fba66844-a0b7-4a8b-a33b-d75df55e9fea"},"period":{"start":"2025-10-10T06:31:00+00:00","end":"2025-10-10T07:30:00+00:00"},"length":{"value":0.0,"unit":"days"}},"request":{"method":"PUT","url":"Encounter/5c954894b848462de0ae62af"}},{"fullUrl":"https://madie.cms.gov/Encounter/5c954894b848462de0ae62b0","resource":{"resourceType":"Encounter","id":"5c954894b848462de0ae62b0","meta":{"profile":["http://hl7.org/fhir/us/qicore/StructureDefinition/qicore-encounter"]},"status":"finished","class":{"system":"http://terminology.hl7.org/CodeSystem/v3-ActCode","code":"IMP","display":"inpatient encounter"},"type":[{"coding":[{"system":"http://snomed.info/sct","code":"32485007"}]}],"subject":{"reference":"Patient/fba66844-a0b7-4a8b-a33b-d75df55e9fea"},"period":{"start":"2025-10-10T07:31:00+00:00","end":"2025-10-12T11:15:00+00:00"},"length":{"value":2.0,"unit":"days"},"diagnosis":[{"condition":{"reference":"Condition/ischemic-stroke-6d61"},"use":{"coding":[{"system":"http://snomed.info/sct","code":"111297002","display":"Ischemic Stroke"}]},"rank":1}]},"request":{"method":"PUT","url":"Encounter/5c954894b848462de0ae62b0"}},{"fullUrl":"https://madie.cms.gov/MedicationAdministration/5c954894b848462de0ae62b2","resource":{"resourceType":"MedicationAdministration","id":"5c954894b848462de0ae62b2","meta":{"profile":["http://hl7.org/fhir/us/qicore/StructureDefinition/qicore-medicationadministration"]},"status":"completed","medicationCodeableConcept":{"coding":[{"system":"http://www.nlm.nih.gov/research/umls/rxnorm","code":"1804799"}]},"subject":{"reference":"Patient/fba66844-a0b7-4a8b-a33b-d75df55e9fea"},"effectivePeriod":{"start":"2025-10-10T06:31:00+00:00"}},"request":{"method":"PUT","url":"MedicationAdministration/5c954894b848462de0ae62b2"}},{"fullUrl":"https://madie.cms.gov/Coverage/5e20a36f1c76ba6c5896ec00","resource":{"resourceType":"Coverage","id":"5e20a36f1c76ba6c5896ec00","status":"active","beneficiary":{"reference":"Patient/fba66844-a0b7-4a8b-a33b-d75df55e9fea"},"period":{"start":"1975-09-26T08:00:00+00:00"},"payor":[{"reference":"Organization/Org-123456"}]},"request":{"method":"PUT","url":"Coverage/5e20a36f1c76ba6c5896ec00"}},{"fullUrl":"https://madie.cms.gov/Condition/ischemic-stroke-6d61","resource":{"resourceType":"Condition","id":"ischemic-stroke-6d61","meta":{"profile":["http://hl7.org/fhir/us/qicore/StructureDefinition/qicore-condition"]},"clinicalStatus":{"coding":[{"system":"http://terminology.hl7.org/CodeSystem/condition-clinical","code":"active"}]},"verificationStatus":{"coding":[{"system":"http://terminology.hl7.org/CodeSystem/condition-ver-status","code":"confirmed"}]},"category":[{"coding":[{"system":"http://terminology.hl7.org/CodeSystem/condition-category","code":"encounter-diagnosis","display":"Encounter Diagnosis"}]}],"code":{"coding":[{"system":"http://snomed.info/sct","version":"2020-09","code":"111297002","display":"Nonparalytic stroke (disorder)","userSelected":true}]},"subject":{"reference":"Patient/fba66844-a0b7-4a8b-a33b-d75df55e9fea"},"recordedDate":"2025-08-13T08:00:00.000+00:00"},"request":{"method":"PUT","url":"Condition/ischemic-stroke-6d61"}},{"fullUrl":"https://madie.cms.gov/Organization/123456","resource":{"resourceType":"Organization","id":"Org-123456","meta":{"profile":["http://hl7.org/fhir/us/qicore/StructureDefinition/qicore-organization"]},"identifier":[{"use":"temp","system":"urn:oid:2.16.840.1.113883.4.4","value":"21-3259825"}],"active":true,"type":[{"coding":[{"system":"http://terminology.hl7.org/CodeSystem/organization-type","code":"pay","display":"Payer"}]}],"name":"Blue Cross Blue Shield of Texas","telecom":[{"system":"phone","value":"(+1) 972-766-6900"}],"address":[{"use":"billing","type":"postal","line":["P.O. Box 660044"],"city":"Dallas","state":"TX","postalCode":"75266-0044","country":"USA"}]},"request":{"method":"PUT","url":"Organization/Org-123456"}},{"fullUrl":"https://madie.cms.gov/MeasureReport/ec2d5771-9b39-4c8a-9cf3-0941918223c7","resource":{"resourceType":"MeasureReport","id":"ec2d5771-9b39-4c8a-9cf3-0941918223c7","meta":{"profile":["http://hl7.org/fhir/us/cqfmeasures/StructureDefinition/test-case-cqfm"]},"contained":[{"resourceType":"Parameters","id":"58eb09a9-4e80-4d02-99aa-b2a9dfcaade5-parameters","parameter":[{"name":"subject","valueString":"fba66844-a0b7-4a8b-a33b-d75df55e9fea"}]}],"extension":[{"url":"http://hl7.org/fhir/us/cqfmeasures/StructureDefinition/cqfm-inputParameters","valueReference":{"reference":"#58eb09a9-4e80-4d02-99aa-b2a9dfcaade5-parameters"}},{"url":"http://hl7.org/fhir/us/cqfmeasures/StructureDefinition/cqfm-testCaseDescription","valueMarkdown":"Patient receives thrombolytic therapy prior to arrival as an encounter diagnosis.\n"}],"modifierExtension":[{"url":"http://hl7.org/fhir/us/cqfmeasures/StructureDefinition/cqfm-isTestCase","valueBoolean":true}],"status":"complete","type":"individual","measure":"https://madie.cms.gov/Measure/AntithromboticTherapyByEndofHospitalDay2FHIR","period":{"start":"2025-01-01","end":"2025-12-31"},"group":[{"population":[{"code":{"coding":[{"system":"http://terminology.hl7.org/CodeSystem/measure-population","code":"initial-population","display":"Initial Population"}]},"count":1},{"code":{"coding":[{"system":"http://terminology.hl7.org/CodeSystem/measure-population","code":"denominator","display":"Denominator"}]},"count":1},{"code":{"coding":[{"system":"http://terminology.hl7.org/CodeSystem/measure-population","code":"denominator-exclusion","display":"Denominator Exclusion"}]},"count":1},{"code":{"coding":[{"system":"http://terminology.hl7.org/CodeSystem/measure-population","code":"numerator","display":"Numerator"}]},"count":0},{"code":{"coding":[{"system":"http://terminology.hl7.org/CodeSystem/measure-population","code":"denominator-exception","display":"Denominator Exception"}]},"count":0}]}],"evaluatedResource":[{"reference":"Patient/fba66844-a0b7-4a8b-a33b-d75df55e9fea"},{"reference":"Encounter/5c954894b848462de0ae62ae"},{"reference":"Encounter/5c954894b848462de0ae62af"},{"reference":"Encounter/5c954894b848462de0ae62b0"},{"reference":"MedicationAdministration/5c954894b848462de0ae62b2"},{"reference":"Coverage/5e20a36f1c76ba6c5896ec00"},{"reference":"Condition/ischemic-stroke-6d61"},{"reference":"Organization/Org-123456"}]},"request":{"method":"PUT","url":"MeasureReport/ec2d5771-9b39-4c8a-9cf3-0941918223c7"}}]}