{"resourceType":"Bundle","id":"tests-82399522-ba6c-4997-afc9-23f55bb7da89-bundle","type":"transaction","entry":[{"fullUrl":"https://madie.cms.gov/Patient/e5a098bd-f673-46ec-961f-1e00d7400af8","resource":{"resourceType":"Patient","id":"e5a098bd-f673-46ec-961f-1e00d7400af8","meta":{"profile":["http://hl7.org/fhir/us/qicore/StructureDefinition/qicore-patient"]},"text":{"status":"generated","div":"<div xmlns=\"http://www.w3.org/1999/xhtml\"><div class=\"hapiHeaderText\">MedReason_MO_Warf_DO_IPC_IPEnc <b>NUMERPASS </b></div><table class=\"hapiPropertyTable\"><tbody><tr><td>Identifier</td><td>7e62c5832c05e34e66418ee66816965a</td></tr><tr><td>Date of birth</td><td><span>02 January 1974</span></td></tr></tbody></table></div>"},"extension":[{"url":"http://hl7.org/fhir/us/core/StructureDefinition/us-core-race","extension":[{"url":"ombCategory","valueCoding":{"system":"urn:oid:2.16.840.1.113883.6.238","code":"2054-5","display":"Black or African American","userSelected":true}},{"url":"text","valueString":"Black or African American"}]},{"url":"http://hl7.org/fhir/us/core/StructureDefinition/us-core-ethnicity","extension":[{"url":"ombCategory","valueCoding":{"system":"urn:oid:2.16.840.1.113883.6.238","code":"2186-5","display":"Not Hispanic or Latino","userSelected":true}},{"url":"text","valueString":"Not Hispanic or Latino"}]}],"identifier":[{"type":{"coding":[{"system":"http://terminology.hl7.org/CodeSystem/v2-0203","code":"MR"}]},"system":"https://bonnie-fhir.healthit.gov/","value":"612e6a9802c62a011f2ea828"}],"active":true,"name":[{"use":"usual","family":"NUMERPass","given":["MedReason_MO_Warf_DO_IPC_IPEnc"]}],"gender":"male","birthDate":"1974-01-02"},"request":{"method":"PUT","url":"Patient/e5a098bd-f673-46ec-961f-1e00d7400af8"}},{"fullUrl":"https://madie.cms.gov/Encounter/5ca62964b8484628b8de1f54","resource":{"resourceType":"Encounter","id":"5ca62964b8484628b8de1f54","meta":{"profile":["http://hl7.org/fhir/us/qicore/StructureDefinition/qicore-encounter"]},"status":"finished","class":{"system":"http://terminology.hl7.org/CodeSystem/v3-ActCode","code":"IMP","display":"inpatient encounter"},"type":[{"coding":[{"system":"http://snomed.info/sct","code":"8715000"}]}],"subject":{"reference":"Patient/e5a098bd-f673-46ec-961f-1e00d7400af8"},"period":{"start":"2025-11-01T08:00:00+00:00","end":"2025-11-26T08:15:00+00:00"},"length":{"value":25.0,"unit":"days"}},"request":{"method":"PUT","url":"Encounter/5ca62964b8484628b8de1f54"}},{"fullUrl":"https://madie.cms.gov/Coverage/5fa041511c76ba66d99591fc","resource":{"resourceType":"Coverage","id":"5fa041511c76ba66d99591fc","status":"active","beneficiary":{"reference":"Patient/e5a098bd-f673-46ec-961f-1e00d7400af8"},"period":{"start":"1974-01-02T08:00:00+00:00"},"payor":[{"reference":"Organization/Org-123456"}]},"request":{"method":"PUT","url":"Coverage/5fa041511c76ba66d99591fc"}},{"fullUrl":"https://madie.cms.gov/MedicationRequest/5ca62964b8484628b8de1f56","resource":{"resourceType":"MedicationRequest","id":"5ca62964b8484628b8de1f56","meta":{"profile":["http://hl7.org/fhir/us/qicore/StructureDefinition/qicore-mednotrequested"]},"status":"completed","intent":"order","category":[{"coding":[{"system":"http://terminology.hl7.org/CodeSystem/medicationrequest-category","code":"community"}]}],"doNotPerform":true,"medicationCodeableConcept":{"coding":[{"system":"http://www.nlm.nih.gov/research/umls/rxnorm","code":"855288"}]},"subject":{"reference":"Patient/e5a098bd-f673-46ec-961f-1e00d7400af8"},"authoredOn":"2025-11-02T09:00:00.000+00:00","requester":{"reference":"Practitioner/practitioner-123456"},"reasonCode":[{"coding":[{"system":"http://snomed.info/sct","code":"183932001","display":"Procedure contraindicated (situation)","userSelected":true}]}],"dosageInstruction":[{"timing":{"repeat":{"boundsPeriod":{"start":"2025-10-11T09:00:00+00:00"}}}}]},"request":{"method":"PUT","url":"MedicationRequest/5ca62964b8484628b8de1f56"}},{"fullUrl":"https://madie.cms.gov/ServiceRequest/graduated-compression-stockings-gcs-8a32","resource":{"resourceType":"ServiceRequest","id":"graduated-compression-stockings-gcs-8a32","meta":{"profile":["http://hl7.org/fhir/us/qicore/StructureDefinition/qicore-servicenotrequested"]},"extension":[{"url":"http://hl7.org/fhir/us/qicore/StructureDefinition/qicore-doNotPerformReason","valueCodeableConcept":{"coding":[{"system":"http://snomed.info/sct","code":"183932001","display":"Procedure contraindicated (situation)"}]}}],"status":"completed","intent":"order","doNotPerform":true,"code":{"coding":[{"system":"http://snomed.info/sct","version":"2025-03","code":"432441000124100","display":"Intermittent pneumatic compression device (physical object)","userSelected":true}]},"subject":{"reference":"Patient/e5a098bd-f673-46ec-961f-1e00d7400af8"},"authoredOn":"2025-11-02T10:00:00+00:00"},"request":{"method":"PUT","url":"ServiceRequest/graduated-compression-stockings-gcs-8a32"}},{"fullUrl":"https://madie.cms.gov/Organization/123456","resource":{"resourceType":"Organization","id":"Org-123456","meta":{"profile":["http://hl7.org/fhir/us/qicore/StructureDefinition/qicore-organization"]},"identifier":[{"use":"temp","system":"urn:oid:2.16.840.1.113883.4.4","value":"21-3259825"}],"active":true,"type":[{"coding":[{"system":"http://terminology.hl7.org/CodeSystem/organization-type","code":"pay","display":"Payer"}]}],"name":"Blue Cross Blue Shield of Texas","telecom":[{"system":"phone","value":"(+1) 972-766-6900"}],"address":[{"use":"billing","type":"postal","line":["P.O. Box 660044"],"city":"Dallas","state":"TX","postalCode":"75266-0044","country":"USA"}]},"request":{"method":"PUT","url":"Organization/Org-123456"}},{"fullUrl":"https://madie.cms.gov/Practitioner/practitioner-123456","resource":{"resourceType":"Practitioner","id":"practitioner-123456","identifier":[{"system":"http://hl7.org/fhir/sid/us-npi","value":"123456"}],"name":[{"family":"Evil","prefix":["Dr"]}]},"request":{"method":"PUT","url":"Practitioner/practitioner-123456"}},{"fullUrl":"https://madie.cms.gov/MeasureReport/2faa25e8-653e-4331-8d83-910e7f20724e","resource":{"resourceType":"MeasureReport","id":"2faa25e8-653e-4331-8d83-910e7f20724e","meta":{"profile":["http://hl7.org/fhir/us/cqfmeasures/StructureDefinition/test-case-cqfm"]},"contained":[{"resourceType":"Parameters","id":"bdc24608-6f97-401d-8ba0-d0e5ba29fb83-parameters","parameter":[{"name":"subject","valueString":"e5a098bd-f673-46ec-961f-1e00d7400af8"}]}],"extension":[{"url":"http://hl7.org/fhir/us/cqfmeasures/StructureDefinition/cqfm-inputParameters","valueReference":{"reference":"#bdc24608-6f97-401d-8ba0-d0e5ba29fb83-parameters"}},{"url":"http://hl7.org/fhir/us/cqfmeasures/StructureDefinition/cqfm-testCaseDescription","valueMarkdown":"IPC and warfarin not ordered due to medical reason <= 1 day after start of IP encounter\n"}],"modifierExtension":[{"url":"http://hl7.org/fhir/us/cqfmeasures/StructureDefinition/cqfm-isTestCase","valueBoolean":true}],"status":"complete","type":"individual","measure":"https://madie.cms.gov/Measure/VenousThromboembolismProphylaxisFHIR","period":{"start":"2025-01-01","end":"2025-12-31"},"group":[{"population":[{"code":{"coding":[{"system":"http://terminology.hl7.org/CodeSystem/measure-population","code":"initial-population","display":"Initial Population"}]},"count":1},{"code":{"coding":[{"system":"http://terminology.hl7.org/CodeSystem/measure-population","code":"denominator","display":"Denominator"}]},"count":1},{"code":{"coding":[{"system":"http://terminology.hl7.org/CodeSystem/measure-population","code":"denominator-exclusion","display":"Denominator Exclusion"}]},"count":0},{"code":{"coding":[{"system":"http://terminology.hl7.org/CodeSystem/measure-population","code":"numerator","display":"Numerator"}]},"count":1}]}],"evaluatedResource":[{"reference":"Patient/e5a098bd-f673-46ec-961f-1e00d7400af8"},{"reference":"Encounter/5ca62964b8484628b8de1f54"},{"reference":"Coverage/5fa041511c76ba66d99591fc"},{"reference":"MedicationRequest/5ca62964b8484628b8de1f56"},{"reference":"ServiceRequest/graduated-compression-stockings-gcs-8a32"},{"reference":"Organization/Org-123456"},{"reference":"Practitioner/practitioner-123456"}]},"request":{"method":"PUT","url":"MeasureReport/2faa25e8-653e-4331-8d83-910e7f20724e"}}]}