{"resourceType":"Bundle","id":"tests-f5f317c7-69f1-4a89-850a-8a58789c80f2-bundle","type":"transaction","entry":[{"fullUrl":"https://madie.cms.gov/Patient/f5f317c7-69f1-4a89-850a-8a58789c80f2","resource":{"resourceType":"Patient","id":"f5f317c7-69f1-4a89-850a-8a58789c80f2","meta":{"profile":["http://hl7.org/fhir/us/qicore/StructureDefinition/qicore-patient"]},"text":{"status":"generated","div":"<div xmlns=\"http://www.w3.org/1999/xhtml\"><div class=\"hapiHeaderText\">PharmContra2DayAftEncStart_NoEDNoObsBFEnc <b>DENEXCEPFAIL </b></div><table class=\"hapiPropertyTable\"><tbody><tr><td>Identifier</td><td>3d4f026c9d3e0727d23e727b50bbdb562e833b85c97ee50ac776c0341f57a44d</td></tr><tr><td>Date of birth</td><td><span>26 September 1975</span></td></tr></tbody></table></div>"},"extension":[{"url":"http://hl7.org/fhir/us/core/StructureDefinition/us-core-race","extension":[{"url":"ombCategory","valueCoding":{"system":"urn:oid:2.16.840.1.113883.6.238","code":"2054-5","display":"Black or African American","userSelected":true}},{"url":"text","valueString":"Black or African American"}]},{"url":"http://hl7.org/fhir/us/core/StructureDefinition/us-core-ethnicity","extension":[{"url":"ombCategory","valueCoding":{"system":"urn:oid:2.16.840.1.113883.6.238","code":"2186-5","display":"Not Hispanic or Latino","userSelected":true}},{"url":"text","valueString":"Not Hispanic or Latino"}]}],"identifier":[{"type":{"coding":[{"system":"http://terminology.hl7.org/CodeSystem/v2-0203","code":"MR"}]},"system":"https://bonnie-fhir.healthit.gov/","value":"60f82c2f98086b570510e2a1"}],"active":true,"name":[{"use":"usual","family":"DENEXCEPFail","given":["PharmContra2DayAftEncStart_NoEDNoObsBFEnc"]}],"gender":"female","birthDate":"1975-09-26"},"request":{"method":"PUT","url":"Patient/f5f317c7-69f1-4a89-850a-8a58789c80f2"}},{"fullUrl":"https://madie.cms.gov/Encounter/5c954894b848462de0ae62b6","resource":{"resourceType":"Encounter","id":"5c954894b848462de0ae62b6","meta":{"profile":["http://hl7.org/fhir/us/qicore/StructureDefinition/qicore-encounter"]},"status":"finished","class":{"system":"http://terminology.hl7.org/CodeSystem/v3-ActCode","code":"IMP","display":"inpatient encounter","userSelected":true},"type":[{"coding":[{"system":"http://snomed.info/sct","code":"32485007"}]}],"subject":{"reference":"Patient/f5f317c7-69f1-4a89-850a-8a58789c80f2"},"period":{"start":"2025-10-10T09:00:00.000+00:00","end":"2025-10-12T11:15:00.000+00:00"},"length":{"value":2.0,"unit":"days"},"diagnosis":[{"condition":{"reference":"Condition/ischemic-stroke-8b66"},"use":{"coding":[{"system":"http://snomed.info/sct","code":"111297002","display":"Ischemic Stroke"}]},"rank":1}]},"request":{"method":"PUT","url":"Encounter/5c954894b848462de0ae62b6"}},{"fullUrl":"https://madie.cms.gov/MedicationAdministration/5de567ad5b87f90000eaf111","resource":{"resourceType":"MedicationAdministration","id":"5de567ad5b87f90000eaf111","meta":{"profile":["http://hl7.org/fhir/us/qicore/StructureDefinition/qicore-medicationadministration"]},"status":"completed","medicationCodeableConcept":{"coding":[{"system":"http://www.nlm.nih.gov/research/umls/rxnorm","code":"1116635"}]},"subject":{"reference":"Patient/f5f317c7-69f1-4a89-850a-8a58789c80f2"},"effectivePeriod":{"start":"2025-10-12T00:00:00+00:00"}},"request":{"method":"PUT","url":"MedicationAdministration/5de567ad5b87f90000eaf111"}},{"fullUrl":"https://madie.cms.gov/Coverage/5e20a36f1c76ba6c5896ec04","resource":{"resourceType":"Coverage","id":"5e20a36f1c76ba6c5896ec04","status":"active","beneficiary":{"reference":"Patient/f5f317c7-69f1-4a89-850a-8a58789c80f2"},"period":{"start":"1975-09-26T08:00:00+00:00"},"payor":[{"reference":"Organization/Org-123456"}]},"request":{"method":"PUT","url":"Coverage/5e20a36f1c76ba6c5896ec04"}},{"fullUrl":"https://madie.cms.gov/Condition/ischemic-stroke-8b66","resource":{"resourceType":"Condition","id":"ischemic-stroke-8b66","meta":{"profile":["http://hl7.org/fhir/us/qicore/StructureDefinition/qicore-condition"]},"clinicalStatus":{"coding":[{"system":"http://terminology.hl7.org/CodeSystem/condition-clinical","code":"active"}]},"verificationStatus":{"coding":[{"system":"http://terminology.hl7.org/CodeSystem/condition-ver-status","code":"confirmed"}]},"category":[{"coding":[{"system":"http://terminology.hl7.org/CodeSystem/condition-category","code":"encounter-diagnosis","display":"Encounter Diagnosis"}]}],"code":{"coding":[{"system":"http://snomed.info/sct","version":"2020-09","code":"111297002","display":"Nonparalytic stroke (disorder)","userSelected":true}]},"subject":{"reference":"Patient/f5f317c7-69f1-4a89-850a-8a58789c80f2"},"recordedDate":"2025-07-28T08:00:00.000+00:00"},"request":{"method":"PUT","url":"Condition/ischemic-stroke-8b66"}},{"fullUrl":"https://madie.cms.gov/Organization/123456","resource":{"resourceType":"Organization","id":"Org-123456","meta":{"profile":["http://hl7.org/fhir/us/qicore/StructureDefinition/qicore-organization"]},"identifier":[{"use":"temp","system":"urn:oid:2.16.840.1.113883.4.4","value":"21-3259825"}],"active":true,"type":[{"coding":[{"system":"http://terminology.hl7.org/CodeSystem/organization-type","code":"pay","display":"Payer"}]}],"name":"Blue Cross Blue Shield of Texas","telecom":[{"system":"phone","value":"(+1) 972-766-6900"}],"address":[{"use":"billing","type":"postal","line":["P.O. Box 660044"],"city":"Dallas","state":"TX","postalCode":"75266-0044","country":"USA"}]},"request":{"method":"PUT","url":"Organization/Org-123456"}},{"fullUrl":"https://madie.cms.gov/MeasureReport/4d4d0477-5768-40f6-9608-453e17a05ada","resource":{"resourceType":"MeasureReport","id":"4d4d0477-5768-40f6-9608-453e17a05ada","meta":{"profile":["http://hl7.org/fhir/us/cqfmeasures/StructureDefinition/test-case-cqfm"]},"contained":[{"resourceType":"Parameters","id":"28a429fb-f654-4e25-a312-cc5275e977a2-parameters","parameter":[{"name":"subject","valueString":"f5f317c7-69f1-4a89-850a-8a58789c80f2"}]}],"extension":[{"url":"http://hl7.org/fhir/us/cqfmeasures/StructureDefinition/cqfm-inputParameters","valueReference":{"reference":"#28a429fb-f654-4e25-a312-cc5275e977a2-parameters"}},{"url":"http://hl7.org/fhir/us/cqfmeasures/StructureDefinition/cqfm-testCaseDescription","valueMarkdown":"Patient receives Ticagrelor 2 days after IP start at midnight. No ED. No Obs. Testing Day of operator with HospitalizationWithObservation function.\n"}],"modifierExtension":[{"url":"http://hl7.org/fhir/us/cqfmeasures/StructureDefinition/cqfm-isTestCase","valueBoolean":true}],"status":"complete","type":"individual","measure":"https://madie.cms.gov/Measure/AntithromboticTherapyByEndofHospitalDay2FHIR","period":{"start":"2025-01-01","end":"2025-12-31"},"group":[{"population":[{"code":{"coding":[{"system":"http://terminology.hl7.org/CodeSystem/measure-population","code":"initial-population","display":"Initial Population"}]},"count":1},{"code":{"coding":[{"system":"http://terminology.hl7.org/CodeSystem/measure-population","code":"denominator","display":"Denominator"}]},"count":1},{"code":{"coding":[{"system":"http://terminology.hl7.org/CodeSystem/measure-population","code":"denominator-exclusion","display":"Denominator Exclusion"}]},"count":0},{"code":{"coding":[{"system":"http://terminology.hl7.org/CodeSystem/measure-population","code":"numerator","display":"Numerator"}]},"count":0},{"code":{"coding":[{"system":"http://terminology.hl7.org/CodeSystem/measure-population","code":"denominator-exception","display":"Denominator Exception"}]},"count":0}]}],"evaluatedResource":[{"reference":"Patient/f5f317c7-69f1-4a89-850a-8a58789c80f2"},{"reference":"Encounter/5c954894b848462de0ae62b6"},{"reference":"MedicationAdministration/5de567ad5b87f90000eaf111"},{"reference":"Coverage/5e20a36f1c76ba6c5896ec04"},{"reference":"Condition/ischemic-stroke-8b66"},{"reference":"Organization/Org-123456"}]},"request":{"method":"PUT","url":"MeasureReport/4d4d0477-5768-40f6-9608-453e17a05ada"}}]}