{"resourceType":"Bundle","id":"tests-388557b1-cf25-4750-88b2-751e475b433f-bundle","type":"transaction","entry":[{"fullUrl":"https://madie.cms.gov/Patient/388557b1-cf25-4750-88b2-751e475b433f","resource":{"resourceType":"Patient","id":"388557b1-cf25-4750-88b2-751e475b433f","meta":{"profile":["http://hl7.org/fhir/us/qicore/StructureDefinition/qicore-patient"]},"text":{"status":"generated","div":"<div xmlns=\"http://www.w3.org/1999/xhtml\"><div class=\"hapiHeaderText\">MedOrdMedReason_gt1dayduringEncIP <b>DENEXCEPFAIL </b></div><table class=\"hapiPropertyTable\"><tbody><tr><td>Identifier</td><td>4457ee30bbf409c7dec7c8fb8e2b81f3</td></tr><tr><td>Date of birth</td><td><span>26 September 1975</span></td></tr></tbody></table></div>"},"extension":[{"url":"http://hl7.org/fhir/us/core/StructureDefinition/us-core-race","extension":[{"url":"ombCategory","valueCoding":{"system":"urn:oid:2.16.840.1.113883.6.238","code":"2054-5","display":"Black or African American","userSelected":true}},{"url":"text","valueString":"Black or African American"}]},{"url":"http://hl7.org/fhir/us/core/StructureDefinition/us-core-ethnicity","extension":[{"url":"ombCategory","valueCoding":{"system":"urn:oid:2.16.840.1.113883.6.238","code":"2186-5","display":"Not Hispanic or Latino","userSelected":true}},{"url":"text","valueString":"Not Hispanic or Latino"}]}],"identifier":[{"type":{"coding":[{"system":"http://terminology.hl7.org/CodeSystem/v2-0203","code":"MR"}]},"system":"https://bonnie-fhir.healthit.gov/","value":"60f82c2e98086b570510e295"}],"active":true,"name":[{"use":"usual","family":"DENEXCEPfail","given":["MedOrdMedReason_gt1dayduringEncIP"]}],"gender":"female","birthDate":"1975-09-26"},"request":{"method":"PUT","url":"Patient/388557b1-cf25-4750-88b2-751e475b433f"}},{"fullUrl":"https://madie.cms.gov/Encounter/5c954894b848462de0ae6286","resource":{"resourceType":"Encounter","id":"5c954894b848462de0ae6286","meta":{"profile":["http://hl7.org/fhir/us/qicore/StructureDefinition/qicore-encounter"]},"status":"finished","class":{"system":"http://terminology.hl7.org/CodeSystem/v3-ActCode","code":"IMP","display":"inpatient encounter","userSelected":true},"type":[{"coding":[{"system":"http://snomed.info/sct","code":"32485007"}]}],"subject":{"reference":"Patient/388557b1-cf25-4750-88b2-751e475b433f"},"period":{"start":"2025-10-10T09:00:00+00:00","end":"2025-10-12T11:15:00+00:00"},"length":{"value":2.0,"unit":"days"},"diagnosis":[{"condition":{"reference":"Condition/ischemic-stroke-9f23"},"use":{"coding":[{"system":"http://snomed.info/sct","code":"111297002","display":"Ischemic Stroke"}]},"rank":1}]},"request":{"method":"PUT","url":"Encounter/5c954894b848462de0ae6286"}},{"fullUrl":"https://madie.cms.gov/MedicationRequest/5c954894b848462de0ae6288","resource":{"resourceType":"MedicationRequest","id":"5c954894b848462de0ae6288","meta":{"profile":["http://hl7.org/fhir/us/qicore/StructureDefinition/qicore-mednotrequested"]},"status":"completed","intent":"order","category":[{"coding":[{"system":"http://terminology.hl7.org/CodeSystem/medicationrequest-category","code":"community"}]}],"doNotPerform":true,"medicationCodeableConcept":{"coding":[{"system":"http://www.nlm.nih.gov/research/umls/rxnorm","code":"1037045"}]},"subject":{"reference":"Patient/388557b1-cf25-4750-88b2-751e475b433f"},"authoredOn":"2025-10-12T09:00:00+00:00","requester":{"reference":"Practitioner/example"},"reasonCode":[{"coding":[{"system":"http://snomed.info/sct","code":"183932001","display":"Procedure contraindicated (situation)","userSelected":true}]}],"dosageInstruction":[{"timing":{"repeat":{"boundsPeriod":{"start":"2025-10-12T09:00:00+00:00"}}}}]},"request":{"method":"PUT","url":"MedicationRequest/5c954894b848462de0ae6288"}},{"fullUrl":"https://madie.cms.gov/Coverage/5e20a36e1c76ba6c5896ebf8","resource":{"resourceType":"Coverage","id":"5e20a36e1c76ba6c5896ebf8","status":"active","beneficiary":{"reference":"Patient/388557b1-cf25-4750-88b2-751e475b433f"},"period":{"start":"1975-09-26T08:00:00+00:00"},"payor":[{"reference":"Organization/Org-123456"}]},"request":{"method":"PUT","url":"Coverage/5e20a36e1c76ba6c5896ebf8"}},{"fullUrl":"https://madie.cms.gov/Condition/ischemic-stroke-9f23","resource":{"resourceType":"Condition","id":"ischemic-stroke-9f23","meta":{"profile":["http://hl7.org/fhir/us/qicore/StructureDefinition/qicore-condition"]},"clinicalStatus":{"coding":[{"system":"http://terminology.hl7.org/CodeSystem/condition-clinical","code":"active"}]},"verificationStatus":{"coding":[{"system":"http://terminology.hl7.org/CodeSystem/condition-ver-status","code":"confirmed"}]},"category":[{"coding":[{"system":"http://terminology.hl7.org/CodeSystem/condition-category","code":"encounter-diagnosis","display":"Encounter Diagnosis"}]}],"code":{"coding":[{"system":"http://snomed.info/sct","version":"2020-09","code":"111297002","display":"Nonparalytic stroke (disorder)","userSelected":true}]},"subject":{"reference":"Patient/388557b1-cf25-4750-88b2-751e475b433f"},"recordedDate":"2025-08-06T08:00:00.000+00:00"},"request":{"method":"PUT","url":"Condition/ischemic-stroke-9f23"}},{"fullUrl":"https://madie.cms.gov/Organization/123456","resource":{"resourceType":"Organization","id":"Org-123456","meta":{"profile":["http://hl7.org/fhir/us/qicore/StructureDefinition/qicore-organization"]},"identifier":[{"use":"temp","system":"urn:oid:2.16.840.1.113883.4.4","value":"21-3259825"}],"active":true,"type":[{"coding":[{"system":"http://terminology.hl7.org/CodeSystem/organization-type","code":"pay","display":"Payer"}]}],"name":"Blue Cross Blue Shield of Texas","telecom":[{"system":"phone","value":"(+1) 972-766-6900"}],"address":[{"use":"billing","type":"postal","line":["P.O. Box 660044"],"city":"Dallas","state":"TX","postalCode":"75266-0044","country":"USA"}]},"request":{"method":"PUT","url":"Organization/Org-123456"}},{"fullUrl":"https://madie.cms.gov/MeasureReport/00283074-03b6-4a97-9140-60fc55127da9","resource":{"resourceType":"MeasureReport","id":"00283074-03b6-4a97-9140-60fc55127da9","meta":{"profile":["http://hl7.org/fhir/us/cqfmeasures/StructureDefinition/test-case-cqfm"]},"contained":[{"resourceType":"Parameters","id":"67cfa9a7-8fb7-45ef-8d1b-5b37d13d37ff-parameters","parameter":[{"name":"subject","valueString":"388557b1-cf25-4750-88b2-751e475b433f"}]}],"extension":[{"url":"http://hl7.org/fhir/us/cqfmeasures/StructureDefinition/cqfm-inputParameters","valueReference":{"reference":"#67cfa9a7-8fb7-45ef-8d1b-5b37d13d37ff-parameters"}},{"url":"http://hl7.org/fhir/us/cqfmeasures/StructureDefinition/cqfm-testCaseDescription","valueMarkdown":"antithrombotic not done due to medical reason >1 day after IP encounter starts AND NOT ED visit\n"}],"modifierExtension":[{"url":"http://hl7.org/fhir/us/cqfmeasures/StructureDefinition/cqfm-isTestCase","valueBoolean":true}],"status":"complete","type":"individual","measure":"https://madie.cms.gov/Measure/AntithromboticTherapyByEndofHospitalDay2FHIR","period":{"start":"2025-01-01","end":"2025-12-31"},"group":[{"population":[{"code":{"coding":[{"system":"http://terminology.hl7.org/CodeSystem/measure-population","code":"initial-population","display":"Initial Population"}]},"count":1},{"code":{"coding":[{"system":"http://terminology.hl7.org/CodeSystem/measure-population","code":"denominator","display":"Denominator"}]},"count":1},{"code":{"coding":[{"system":"http://terminology.hl7.org/CodeSystem/measure-population","code":"denominator-exclusion","display":"Denominator Exclusion"}]},"count":0},{"code":{"coding":[{"system":"http://terminology.hl7.org/CodeSystem/measure-population","code":"numerator","display":"Numerator"}]},"count":0},{"code":{"coding":[{"system":"http://terminology.hl7.org/CodeSystem/measure-population","code":"denominator-exception","display":"Denominator Exception"}]},"count":0}]}],"evaluatedResource":[{"reference":"Patient/388557b1-cf25-4750-88b2-751e475b433f"},{"reference":"Encounter/5c954894b848462de0ae6286"},{"reference":"MedicationRequest/5c954894b848462de0ae6288"},{"reference":"Coverage/5e20a36e1c76ba6c5896ebf8"},{"reference":"Condition/ischemic-stroke-9f23"},{"reference":"Organization/Org-123456"}]},"request":{"method":"PUT","url":"MeasureReport/00283074-03b6-4a97-9140-60fc55127da9"}}]}