{"resourceType":"Bundle","id":"tests-3264d587-3c02-45ff-b989-044fcc30abae-bundle","type":"transaction","entry":[{"fullUrl":"https://madie.cms.gov/Patient/3264d587-3c02-45ff-b989-044fcc30abae","resource":{"resourceType":"Patient","id":"3264d587-3c02-45ff-b989-044fcc30abae","meta":{"profile":["http://hl7.org/fhir/us/qicore/StructureDefinition/qicore-patient"]},"text":{"status":"generated","div":"<div xmlns=\"http://www.w3.org/1999/xhtml\"><div class=\"hapiHeaderText\">LastEdEnd_LT_1hrB4ObsStartDayAft_ValidObs_INRresultDatetime_EQ1minB4EdStart <b>DENEXCEPASS </b></div><table class=\"hapiPropertyTable\"><tbody><tr><td>Identifier</td><td>41b76b51b736266a481493c3a5fb7fd38292e37262b1577b398913135b70db53</td></tr><tr><td>Date of birth</td><td><span>26 September 1975</span></td></tr></tbody></table></div>"},"extension":[{"url":"http://hl7.org/fhir/us/core/StructureDefinition/us-core-race","extension":[{"url":"ombCategory","valueCoding":{"system":"urn:oid:2.16.840.1.113883.6.238","code":"1002-5","display":"American Indian or Alaska Native","userSelected":true}},{"url":"text","valueString":"American Indian or Alaska Native"}]},{"url":"http://hl7.org/fhir/us/core/StructureDefinition/us-core-ethnicity","extension":[{"url":"ombCategory","valueCoding":{"system":"urn:oid:2.16.840.1.113883.6.238","code":"2135-2","display":"Hispanic or Latino","userSelected":true}},{"url":"text","valueString":"Hispanic or Latino"}]}],"identifier":[{"type":{"coding":[{"system":"http://terminology.hl7.org/CodeSystem/v2-0203","code":"MR"}]},"system":"https://bonnie-fhir.healthit.gov/","value":"60f82c2f98086b570510e2c3"}],"active":true,"name":[{"use":"usual","family":"DENEXCEPass","given":["LastEdEnd_LT_1hrB4ObsStartDayAft_ValidObs_INRresultDatetime_EQ1minB4EdStart"]}],"gender":"female","birthDate":"1975-09-26"},"request":{"method":"PUT","url":"Patient/3264d587-3c02-45ff-b989-044fcc30abae"}},{"fullUrl":"https://madie.cms.gov/Encounter/5d49b12fb8484631934fe6a4","resource":{"resourceType":"Encounter","id":"8d00b3ae-0dce-44bf-a3e7-c42ed88107d5","meta":{"profile":["http://hl7.org/fhir/us/qicore/StructureDefinition/qicore-encounter"]},"status":"finished","class":{"system":"http://terminology.hl7.org/CodeSystem/v3-ActCode","code":"EMER","display":"emergency","userSelected":true},"type":[{"coding":[{"system":"http://snomed.info/sct","code":"4525004"}]}],"subject":{"reference":"Patient/3264d587-3c02-45ff-b989-044fcc30abae"},"period":{"start":"2025-10-10T06:15:00+00:00","end":"2025-10-10T23:59:00+00:00"},"length":{"value":0,"unit":"days"}},"request":{"method":"PUT","url":"Encounter/8d00b3ae-0dce-44bf-a3e7-c42ed88107d5"}},{"fullUrl":"https://madie.cms.gov/Encounter/5d49b12fb8484631934fe6a5","resource":{"resourceType":"Encounter","id":"4d601c07-6d1d-4678-b20f-1c6758e19926","meta":{"profile":["http://hl7.org/fhir/us/qicore/StructureDefinition/qicore-encounter"]},"status":"finished","class":{"system":"http://terminology.hl7.org/CodeSystem/v3-ActCode","code":"OBSENC","display":"observation encounter","userSelected":true},"type":[{"coding":[{"system":"http://snomed.info/sct","code":"448951000124107"}]}],"subject":{"reference":"Patient/3264d587-3c02-45ff-b989-044fcc30abae"},"period":{"start":"2025-10-11T00:00:00+00:00","end":"2025-10-11T11:59:00+00:00"},"length":{"value":0,"unit":"days"}},"request":{"method":"PUT","url":"Encounter/4d601c07-6d1d-4678-b20f-1c6758e19926"}},{"fullUrl":"https://madie.cms.gov/Encounter/5d49b12fb8484631934fe6a6","resource":{"resourceType":"Encounter","id":"796fd6fa-ecba-4d56-908f-e576cda01536","meta":{"profile":["http://hl7.org/fhir/us/qicore/StructureDefinition/qicore-encounter"]},"status":"finished","class":{"system":"http://terminology.hl7.org/CodeSystem/v3-ActCode","code":"IMP","display":"inpatient encounter","userSelected":true},"type":[{"coding":[{"system":"http://snomed.info/sct","code":"32485007"}]}],"subject":{"reference":"Patient/3264d587-3c02-45ff-b989-044fcc30abae"},"period":{"start":"2025-10-11T12:15:00+00:00","end":"2025-10-15T11:30:00+00:00"},"length":{"value":4,"unit":"days"},"diagnosis":[{"condition":{"reference":"Condition/ischemic-stroke-9f20"},"use":{"coding":[{"system":"http://terminology.hl7.org/CodeSystem/diagnosis-role","code":"billing","display":"Billing"}]},"rank":1}]},"request":{"method":"PUT","url":"Encounter/796fd6fa-ecba-4d56-908f-e576cda01536"}},{"fullUrl":"https://madie.cms.gov/Observation/5d49b12fb8484631934fe6a8","resource":{"resourceType":"Observation","id":"377a870a-ff56-4da5-8ac0-905f42a90d1e","meta":{"profile":["http://hl7.org/fhir/us/qicore/StructureDefinition/qicore-observation"]},"status":"final","category":[{"coding":[{"system":"http://terminology.hl7.org/CodeSystem/observation-category","code":"laboratory","display":"Laboratory"}]}],"code":{"coding":[{"system":"http://loinc.org","code":"34714-6"}]},"subject":{"reference":"Patient/3264d587-3c02-45ff-b989-044fcc30abae"},"effectivePeriod":{"start":"2025-10-10T06:15:00+00:00"},"issued":"2025-10-10T06:14:00.000+00:00","valueQuantity":{"value":3.6}},"request":{"method":"PUT","url":"Observation/377a870a-ff56-4da5-8ac0-905f42a90d1e"}},{"fullUrl":"https://madie.cms.gov/Coverage/5e20a3731c76ba6c5896ec26","resource":{"resourceType":"Coverage","id":"9823785a-5bbd-4f7a-8d6e-da563e012eed","status":"active","beneficiary":{"reference":"Patient/3264d587-3c02-45ff-b989-044fcc30abae"},"period":{"start":"1975-09-26T08:00:00+00:00"},"payor":[{"reference":"Organization/806b0255-13cb-4f2b-9412-571554dd2169"}]},"request":{"method":"PUT","url":"Coverage/9823785a-5bbd-4f7a-8d6e-da563e012eed"}},{"fullUrl":"https://madie.cms.gov/Condition/ischemic-stroke-9f20","resource":{"resourceType":"Condition","id":"876c3ed6-a94c-43ef-b78f-ee4b7c55fd74","meta":{"profile":["http://hl7.org/fhir/us/qicore/StructureDefinition/qicore-condition"]},"clinicalStatus":{"coding":[{"system":"http://terminology.hl7.org/CodeSystem/condition-clinical","code":"active"}]},"verificationStatus":{"coding":[{"system":"http://terminology.hl7.org/CodeSystem/condition-ver-status","code":"confirmed"}]},"category":[{"coding":[{"system":"http://terminology.hl7.org/CodeSystem/condition-category","code":"encounter-diagnosis","display":"Encounter Diagnosis"}]}],"code":{"coding":[{"system":"http://snomed.info/sct","version":"2020-09","code":"111297002","display":"Nonparalytic stroke (disorder)","userSelected":true}]},"subject":{"reference":"Patient/3264d587-3c02-45ff-b989-044fcc30abae"},"recordedDate":"2025-08-06T08:00:00.000+00:00"},"request":{"method":"PUT","url":"Condition/876c3ed6-a94c-43ef-b78f-ee4b7c55fd74"}},{"fullUrl":"https://madie.cms.gov/Organization/123456","resource":{"resourceType":"Organization","id":"806b0255-13cb-4f2b-9412-571554dd2169","meta":{"profile":["http://hl7.org/fhir/us/qicore/StructureDefinition/qicore-organization"]},"identifier":[{"use":"temp","system":"urn:oid:2.16.840.1.113883.4.4","value":"21-3259825"}],"active":true,"type":[{"coding":[{"system":"http://terminology.hl7.org/CodeSystem/organization-type","code":"pay","display":"Payer"}]}],"name":"Blue Cross Blue Shield of Texas","telecom":[{"system":"phone","value":"(+1) 972-766-6900"}],"address":[{"use":"billing","type":"postal","line":["P.O. Box 660044"],"city":"Dallas","state":"TX","postalCode":"75266-0044","country":"USA"}]},"request":{"method":"PUT","url":"Organization/806b0255-13cb-4f2b-9412-571554dd2169"}},{"fullUrl":"https://madie.cms.gov/MeasureReport/5693dcec-1f49-4ae9-9d57-df312b89c63d","resource":{"resourceType":"MeasureReport","id":"5693dcec-1f49-4ae9-9d57-df312b89c63d","meta":{"profile":["http://hl7.org/fhir/us/cqfmeasures/StructureDefinition/test-case-cqfm"]},"contained":[{"resourceType":"Parameters","id":"d2a45273-9b11-418a-a987-f6af7151c28a-parameters","parameter":[{"name":"subject","valueString":"3264d587-3c02-45ff-b989-044fcc30abae"}]}],"extension":[{"url":"http://hl7.org/fhir/us/cqfmeasures/StructureDefinition/cqfm-inputParameters","valueReference":{"reference":"#d2a45273-9b11-418a-a987-f6af7151c28a-parameters"}},{"url":"http://hl7.org/fhir/us/cqfmeasures/StructureDefinition/cqfm-testCaseDescription","valueMarkdown":"Patient receives INR of 3.6 1 minute before ED start.  ED less than 1 hour before OBS starts at midnight (day after). Case will pass due to day of.\n"}],"modifierExtension":[{"url":"http://hl7.org/fhir/us/cqfmeasures/StructureDefinition/cqfm-isTestCase","valueBoolean":true}],"status":"complete","type":"individual","measure":"https://madie.cms.gov/Measure/AntithromboticTherapyByEndofHospitalDay2FHIR","period":{"start":"2025-01-01","end":"2025-12-31"},"group":[{"population":[{"code":{"coding":[{"system":"http://terminology.hl7.org/CodeSystem/measure-population","code":"initial-population","display":"Initial Population"}]},"count":1},{"code":{"coding":[{"system":"http://terminology.hl7.org/CodeSystem/measure-population","code":"denominator","display":"Denominator"}]},"count":1},{"code":{"coding":[{"system":"http://terminology.hl7.org/CodeSystem/measure-population","code":"denominator-exclusion","display":"Denominator Exclusion"}]},"count":0},{"code":{"coding":[{"system":"http://terminology.hl7.org/CodeSystem/measure-population","code":"numerator","display":"Numerator"}]},"count":0},{"code":{"coding":[{"system":"http://terminology.hl7.org/CodeSystem/measure-population","code":"denominator-exception","display":"Denominator Exception"}]},"count":1}]}]},"request":{"method":"PUT","url":"MeasureReport/5693dcec-1f49-4ae9-9d57-df312b89c63d"}}]}