{"resourceType":"Bundle","id":"tests-e0bae301-79a4-48b0-a174-5eb1bd6cf19e-bundle","type":"transaction","entry":[{"fullUrl":"https://madie.cms.gov/Patient/e0bae301-79a4-48b0-a174-5eb1bd6cf19e","resource":{"resourceType":"Patient","id":"e0bae301-79a4-48b0-a174-5eb1bd6cf19e","meta":{"profile":["http://hl7.org/fhir/us/qicore/StructureDefinition/qicore-patient"]},"text":{"status":"generated","div":"<div xmlns=\"http://www.w3.org/1999/xhtml\"><div class=\"hapiHeaderText\">MedTPA&lt;24hrB4ED_EDET=EncST <b>DENEXPASS </b></div><table class=\"hapiPropertyTable\"><tbody><tr><td>Identifier</td><td>2a5c51c4bb000beac98349a46ff02c15</td></tr><tr><td>Date of birth</td><td><span>26 September 1975</span></td></tr></tbody></table></div>"},"extension":[{"url":"http://hl7.org/fhir/us/core/StructureDefinition/us-core-race","extension":[{"url":"ombCategory","valueCoding":{"system":"urn:oid:2.16.840.1.113883.6.238","code":"2054-5","display":"Black or African American","userSelected":true}},{"url":"text","valueString":"Black or African American"}]},{"url":"http://hl7.org/fhir/us/core/StructureDefinition/us-core-ethnicity","extension":[{"url":"ombCategory","valueCoding":{"system":"urn:oid:2.16.840.1.113883.6.238","code":"2186-5","display":"Not Hispanic or Latino","userSelected":true}},{"url":"text","valueString":"Not Hispanic or Latino"}]}],"identifier":[{"type":{"coding":[{"system":"http://terminology.hl7.org/CodeSystem/v2-0203","code":"MR"}]},"system":"https://bonnie-fhir.healthit.gov/","value":"60f82c2e98086b570510e26b"}],"active":true,"name":[{"use":"usual","family":"DENEXPass","given":["MedTPA<24hrB4ED_EDET=EncST"]}],"gender":"female","birthDate":"1975-09-26"},"request":{"method":"PUT","url":"Patient/e0bae301-79a4-48b0-a174-5eb1bd6cf19e"}},{"fullUrl":"https://madie.cms.gov/Encounter/5c954894b848462de0ae629f","resource":{"resourceType":"Encounter","id":"d60ae8f1-27a9-4b39-9c6f-9421983f18c7","meta":{"profile":["http://hl7.org/fhir/us/qicore/StructureDefinition/qicore-encounter"]},"status":"finished","class":{"system":"http://terminology.hl7.org/CodeSystem/v3-ActCode","code":"EMER","display":"emergency"},"type":[{"coding":[{"system":"http://snomed.info/sct","code":"4525004"}]}],"subject":{"reference":"Patient/e0bae301-79a4-48b0-a174-5eb1bd6cf19e"},"period":{"start":"2025-10-10T06:00:00+00:00","end":"2025-10-10T07:01:00+00:00"},"length":{"value":0,"unit":"days"}},"request":{"method":"PUT","url":"Encounter/d60ae8f1-27a9-4b39-9c6f-9421983f18c7"}},{"fullUrl":"https://madie.cms.gov/Encounter/5c954894b848462de0ae62a0","resource":{"resourceType":"Encounter","id":"82205118-2801-475f-97af-1cc04b6944b1","meta":{"profile":["http://hl7.org/fhir/us/qicore/StructureDefinition/qicore-encounter"]},"status":"finished","class":{"system":"http://terminology.hl7.org/CodeSystem/v3-ActCode","code":"IMP","display":"inpatient encounter"},"type":[{"coding":[{"system":"http://snomed.info/sct","code":"32485007"}]}],"subject":{"reference":"Patient/e0bae301-79a4-48b0-a174-5eb1bd6cf19e"},"period":{"start":"2025-10-10T07:01:00+00:00","end":"2025-10-12T11:15:00+00:00"},"length":{"value":2,"unit":"days"},"diagnosis":[{"condition":{"reference":"Condition/ischemic-stroke-2d65"},"use":{"coding":[{"system":"http://terminology.hl7.org/CodeSystem/diagnosis-role","code":"billing","display":"Billing"}]},"rank":1}]},"request":{"method":"PUT","url":"Encounter/82205118-2801-475f-97af-1cc04b6944b1"}},{"fullUrl":"https://madie.cms.gov/MedicationAdministration/5c954894b848462de0ae62a2","resource":{"resourceType":"MedicationAdministration","id":"4fa97706-8baa-41be-ba77-8a65a9ee2cdc","meta":{"profile":["http://hl7.org/fhir/us/qicore/StructureDefinition/qicore-medicationadministration"]},"status":"completed","medicationCodeableConcept":{"coding":[{"system":"http://www.nlm.nih.gov/research/umls/rxnorm","code":"1804799"}]},"subject":{"reference":"Patient/e0bae301-79a4-48b0-a174-5eb1bd6cf19e"},"effectivePeriod":{"start":"2025-10-09T06:01:00+00:00"}},"request":{"method":"PUT","url":"MedicationAdministration/4fa97706-8baa-41be-ba77-8a65a9ee2cdc"}},{"fullUrl":"https://madie.cms.gov/Coverage/5e20a3691c76ba6c5896ebce","resource":{"resourceType":"Coverage","id":"34304391-ebe4-4a82-8e9e-8a23f2c90939","status":"active","beneficiary":{"reference":"Patient/e0bae301-79a4-48b0-a174-5eb1bd6cf19e"},"period":{"start":"1975-09-26T08:00:00+00:00"},"payor":[{"reference":"Organization/4d7da20f-8773-4347-8f6b-80adcdcee1f4"}]},"request":{"method":"PUT","url":"Coverage/34304391-ebe4-4a82-8e9e-8a23f2c90939"}},{"fullUrl":"https://madie.cms.gov/Condition/ischemic-stroke-2d65","resource":{"resourceType":"Condition","id":"bcbcbb5f-c520-4c26-8c7f-7c77d6965ff1","meta":{"profile":["http://hl7.org/fhir/us/qicore/StructureDefinition/qicore-condition"]},"clinicalStatus":{"coding":[{"system":"http://terminology.hl7.org/CodeSystem/condition-clinical","code":"active"}]},"verificationStatus":{"coding":[{"system":"http://terminology.hl7.org/CodeSystem/condition-ver-status","code":"confirmed"}]},"category":[{"coding":[{"system":"http://terminology.hl7.org/CodeSystem/condition-category","code":"encounter-diagnosis","display":"Encounter Diagnosis"}]}],"code":{"coding":[{"system":"http://snomed.info/sct","version":"2020-09","code":"111297002","display":"Nonparalytic stroke (disorder)","userSelected":true}]},"subject":{"reference":"Patient/e0bae301-79a4-48b0-a174-5eb1bd6cf19e"},"recordedDate":"2025-08-13T08:00:00.000+00:00"},"request":{"method":"PUT","url":"Condition/bcbcbb5f-c520-4c26-8c7f-7c77d6965ff1"}},{"fullUrl":"https://madie.cms.gov/Organization/123456","resource":{"resourceType":"Organization","id":"4d7da20f-8773-4347-8f6b-80adcdcee1f4","meta":{"profile":["http://hl7.org/fhir/us/qicore/StructureDefinition/qicore-organization"]},"identifier":[{"use":"temp","system":"urn:oid:2.16.840.1.113883.4.4","value":"21-3259825"}],"active":true,"type":[{"coding":[{"system":"http://terminology.hl7.org/CodeSystem/organization-type","code":"pay","display":"Payer"}]}],"name":"Blue Cross Blue Shield of Texas","telecom":[{"system":"phone","value":"(+1) 972-766-6900"}],"address":[{"use":"billing","type":"postal","line":["P.O. Box 660044"],"city":"Dallas","state":"TX","postalCode":"75266-0044","country":"USA"}]},"request":{"method":"PUT","url":"Organization/4d7da20f-8773-4347-8f6b-80adcdcee1f4"}},{"fullUrl":"https://madie.cms.gov/MeasureReport/b8052998-5e84-4ae1-b175-6b1948d21ad2","resource":{"resourceType":"MeasureReport","id":"b8052998-5e84-4ae1-b175-6b1948d21ad2","meta":{"profile":["http://hl7.org/fhir/us/cqfmeasures/StructureDefinition/test-case-cqfm"]},"contained":[{"resourceType":"Parameters","id":"3d7757ad-06bd-40be-931f-6288e5207e72-parameters","parameter":[{"name":"subject","valueString":"e0bae301-79a4-48b0-a174-5eb1bd6cf19e"}]}],"extension":[{"url":"http://hl7.org/fhir/us/cqfmeasures/StructureDefinition/cqfm-inputParameters","valueReference":{"reference":"#3d7757ad-06bd-40be-931f-6288e5207e72-parameters"}},{"url":"http://hl7.org/fhir/us/cqfmeasures/StructureDefinition/cqfm-testCaseDescription","valueMarkdown":"Patient receives TPA 23 hours and 59 minutes before ED Visit, ED ends on enc start time.\n"}],"modifierExtension":[{"url":"http://hl7.org/fhir/us/cqfmeasures/StructureDefinition/cqfm-isTestCase","valueBoolean":true}],"status":"complete","type":"individual","measure":"https://madie.cms.gov/Measure/AntithromboticTherapyByEndofHospitalDay2FHIR","period":{"start":"2025-01-01","end":"2025-12-31"},"group":[{"population":[{"code":{"coding":[{"system":"http://terminology.hl7.org/CodeSystem/measure-population","code":"initial-population","display":"Initial Population"}]},"count":1},{"code":{"coding":[{"system":"http://terminology.hl7.org/CodeSystem/measure-population","code":"denominator","display":"Denominator"}]},"count":1},{"code":{"coding":[{"system":"http://terminology.hl7.org/CodeSystem/measure-population","code":"denominator-exclusion","display":"Denominator Exclusion"}]},"count":1},{"code":{"coding":[{"system":"http://terminology.hl7.org/CodeSystem/measure-population","code":"numerator","display":"Numerator"}]},"count":0},{"code":{"coding":[{"system":"http://terminology.hl7.org/CodeSystem/measure-population","code":"denominator-exception","display":"Denominator Exception"}]},"count":0}]}]},"request":{"method":"PUT","url":"MeasureReport/b8052998-5e84-4ae1-b175-6b1948d21ad2"}}]}