{"resourceType":"Bundle","id":"tests-4a73b8d0-f36f-4d55-8b4c-fc34f94e9c5d-bundle","type":"transaction","entry":[{"fullUrl":"https://madie.cms.gov/Patient/4a73b8d0-f36f-4d55-8b4c-fc34f94e9c5d","resource":{"resourceType":"Patient","id":"4a73b8d0-f36f-4d55-8b4c-fc34f94e9c5d","meta":{"profile":["http://hl7.org/fhir/us/qicore/StructureDefinition/qicore-patient"]},"text":{"status":"generated","div":"<div xmlns=\"http://www.w3.org/1999/xhtml\"><div class=\"hapiHeaderText\">MedAdmMedReason_eq1dayduringEncIPTestOccurr <b>DENEXCEPPASS </b></div><table class=\"hapiPropertyTable\"><tbody><tr><td>Identifier</td><td>a6f00645f14239ac325a9a8aa737c7f66717d55882b8c9b28807040b78c6d279</td></tr><tr><td>Date of birth</td><td><span>26 September 1975</span></td></tr></tbody></table></div>"},"extension":[{"url":"http://hl7.org/fhir/us/core/StructureDefinition/us-core-race","extension":[{"url":"ombCategory","valueCoding":{"system":"urn:oid:2.16.840.1.113883.6.238","code":"2054-5","display":"Black or African American","userSelected":true}},{"url":"text","valueString":"Black or African American"}]},{"url":"http://hl7.org/fhir/us/core/StructureDefinition/us-core-ethnicity","extension":[{"url":"ombCategory","valueCoding":{"system":"urn:oid:2.16.840.1.113883.6.238","code":"2186-5","display":"Not Hispanic or Latino","userSelected":true}},{"url":"text","valueString":"Not Hispanic or Latino"}]}],"identifier":[{"type":{"coding":[{"system":"http://terminology.hl7.org/CodeSystem/v2-0203","code":"MR"}]},"system":"https://bonnie-fhir.healthit.gov/","value":"60f82c2f98086b570510e2bd"}],"active":true,"name":[{"use":"usual","family":"DENEXCEPPass","given":["MedAdmMedReason_eq1dayduringEncIPTestOccurr"]}],"gender":"female","birthDate":"1975-09-26"},"request":{"method":"PUT","url":"Patient/4a73b8d0-f36f-4d55-8b4c-fc34f94e9c5d"}},{"fullUrl":"https://madie.cms.gov/Encounter/5ca4c092b8484613a555291e","resource":{"resourceType":"Encounter","id":"750ac3bc-75a0-4403-a76a-406d95657067","meta":{"profile":["http://hl7.org/fhir/us/qicore/StructureDefinition/qicore-encounter"]},"status":"finished","class":{"system":"http://terminology.hl7.org/CodeSystem/v3-ActCode","code":"IMP","display":"inpatient encounter","userSelected":true},"type":[{"coding":[{"system":"http://snomed.info/sct","code":"183452005"}]}],"subject":{"reference":"Patient/4a73b8d0-f36f-4d55-8b4c-fc34f94e9c5d"},"period":{"start":"2025-10-09T09:00:00.000+00:00","end":"2025-10-09T11:15:00.000+00:00"},"length":{"value":0,"unit":"days"}},"request":{"method":"PUT","url":"Encounter/750ac3bc-75a0-4403-a76a-406d95657067"}},{"fullUrl":"https://madie.cms.gov/Encounter/5ca4c092b8484613a555291f","resource":{"resourceType":"Encounter","id":"9866a241-b719-4497-af79-cebd21866557","meta":{"profile":["http://hl7.org/fhir/us/qicore/StructureDefinition/qicore-encounter"]},"status":"finished","class":{"system":"http://terminology.hl7.org/CodeSystem/v3-ActCode","code":"IMP","display":"inpatient encounter","userSelected":true},"type":[{"coding":[{"system":"http://snomed.info/sct","code":"32485007"}]}],"subject":{"reference":"Patient/4a73b8d0-f36f-4d55-8b4c-fc34f94e9c5d"},"period":{"start":"2025-10-10T09:00:00.000+00:00","end":"2025-10-12T11:15:00.000+00:00"},"length":{"value":2,"unit":"days"},"diagnosis":[{"condition":{"reference":"Condition/ischemic-stroke-9783"},"use":{"coding":[{"system":"http://terminology.hl7.org/CodeSystem/diagnosis-role","code":"billing","display":"Billing"}]},"rank":1}]},"request":{"method":"PUT","url":"Encounter/9866a241-b719-4497-af79-cebd21866557"}},{"fullUrl":"https://madie.cms.gov/MedicationAdministration/5ca4c092b8484613a5552920","resource":{"resourceType":"MedicationAdministration","id":"0ee32bf7-dca0-4f18-af55-692d106429b0","meta":{"profile":["http://hl7.org/fhir/us/qicore/StructureDefinition/qicore-mednotadministered"]},"extension":[{"url":"http://hl7.org/fhir/us/qicore/StructureDefinition/qicore-recorded","valueDateTime":"2025-10-11T09:00:00+00:00"}],"status":"not-done","statusReason":[{"coding":[{"system":"http://snomed.info/sct","code":"183932001","display":"Procedure contraindicated (situation)"}]}],"medicationCodeableConcept":{"coding":[{"system":"http://www.nlm.nih.gov/research/umls/rxnorm","code":"198466"},{"system":"http://www.nlm.nih.gov/research/umls/rxnorm","code":"1037045"}]},"subject":{"reference":"Patient/4a73b8d0-f36f-4d55-8b4c-fc34f94e9c5d"},"effectivePeriod":{"start":"2025-10-11T09:00:00+00:00"}},"request":{"method":"PUT","url":"MedicationAdministration/0ee32bf7-dca0-4f18-af55-692d106429b0"}},{"fullUrl":"https://madie.cms.gov/Coverage/5e20a3721c76ba6c5896ec20","resource":{"resourceType":"Coverage","id":"d8a9e0b3-0ba1-44e2-bb72-c99242d49aa5","status":"active","beneficiary":{"reference":"Patient/4a73b8d0-f36f-4d55-8b4c-fc34f94e9c5d"},"period":{"start":"1975-09-26T08:00:00+00:00"},"payor":[{"reference":"Organization/77e4d06f-5e3c-436a-a598-80cefcca5028"}]},"request":{"method":"PUT","url":"Coverage/d8a9e0b3-0ba1-44e2-bb72-c99242d49aa5"}},{"fullUrl":"https://madie.cms.gov/Condition/ischemic-stroke-9782","resource":{"resourceType":"Condition","id":"6494108c-3810-4a4b-b9fe-93a1abda128e","meta":{"profile":["http://hl7.org/fhir/us/qicore/StructureDefinition/qicore-condition"]},"clinicalStatus":{"coding":[{"system":"http://terminology.hl7.org/CodeSystem/condition-clinical","code":"active"}]},"verificationStatus":{"coding":[{"system":"http://terminology.hl7.org/CodeSystem/condition-ver-status","code":"confirmed"}]},"category":[{"coding":[{"system":"http://terminology.hl7.org/CodeSystem/condition-category","code":"encounter-diagnosis","display":"Encounter Diagnosis"}]}],"code":{"coding":[{"system":"http://snomed.info/sct","version":"2020-09","code":"111297002","display":"Nonparalytic stroke (disorder)","userSelected":true}]},"subject":{"reference":"Patient/4a73b8d0-f36f-4d55-8b4c-fc34f94e9c5d"},"recordedDate":"2022-08-05T08:00:00.000+00:00"},"request":{"method":"PUT","url":"Condition/6494108c-3810-4a4b-b9fe-93a1abda128e"}},{"fullUrl":"https://madie.cms.gov/Condition/ischemic-stroke-9783","resource":{"resourceType":"Condition","id":"90aa9a2a-fd44-4009-b6d6-0d399c5ebc02","meta":{"profile":["http://hl7.org/fhir/us/qicore/StructureDefinition/qicore-condition"]},"clinicalStatus":{"coding":[{"system":"http://terminology.hl7.org/CodeSystem/condition-clinical","code":"active"}]},"verificationStatus":{"coding":[{"system":"http://terminology.hl7.org/CodeSystem/condition-ver-status","code":"confirmed"}]},"category":[{"coding":[{"system":"http://terminology.hl7.org/CodeSystem/condition-category","code":"encounter-diagnosis","display":"Encounter Diagnosis"}]}],"code":{"coding":[{"system":"http://snomed.info/sct","version":"2020-09","code":"111297002","display":"Nonparalytic stroke (disorder)","userSelected":true}]},"subject":{"reference":"Patient/4a73b8d0-f36f-4d55-8b4c-fc34f94e9c5d"},"recordedDate":"2022-08-05T08:00:00.000+00:00"},"request":{"method":"PUT","url":"Condition/90aa9a2a-fd44-4009-b6d6-0d399c5ebc02"}},{"fullUrl":"https://madie.cms.gov/Organization/123456","resource":{"resourceType":"Organization","id":"77e4d06f-5e3c-436a-a598-80cefcca5028","meta":{"profile":["http://hl7.org/fhir/us/qicore/StructureDefinition/qicore-organization"]},"identifier":[{"use":"temp","system":"urn:oid:2.16.840.1.113883.4.4","value":"21-3259825"}],"active":true,"type":[{"coding":[{"system":"http://terminology.hl7.org/CodeSystem/organization-type","code":"pay","display":"Payer"}]}],"name":"Blue Cross Blue Shield of Texas","telecom":[{"system":"phone","value":"(+1) 972-766-6900"}],"address":[{"use":"billing","type":"postal","line":["P.O. Box 660044"],"city":"Dallas","state":"TX","postalCode":"75266-0044","country":"USA"}]},"request":{"method":"PUT","url":"Organization/77e4d06f-5e3c-436a-a598-80cefcca5028"}},{"fullUrl":"https://madie.cms.gov/MeasureReport/fb726195-9cbe-4fcf-b750-b174a6639405","resource":{"resourceType":"MeasureReport","id":"fb726195-9cbe-4fcf-b750-b174a6639405","meta":{"profile":["http://hl7.org/fhir/us/cqfmeasures/StructureDefinition/test-case-cqfm"]},"contained":[{"resourceType":"Parameters","id":"8e327058-44e3-4ef2-abce-baecdec1c336-parameters","parameter":[{"name":"subject","valueString":"4a73b8d0-f36f-4d55-8b4c-fc34f94e9c5d"}]}],"extension":[{"url":"http://hl7.org/fhir/us/cqfmeasures/StructureDefinition/cqfm-inputParameters","valueReference":{"reference":"#8e327058-44e3-4ef2-abce-baecdec1c336-parameters"}},{"url":"http://hl7.org/fhir/us/cqfmeasures/StructureDefinition/cqfm-testCaseDescription","valueMarkdown":"antithrombotic not done due to medical reason = 1 day after IP encounter starts AND NOT ED visit. Testing 2 IP encounters.\n"}],"modifierExtension":[{"url":"http://hl7.org/fhir/us/cqfmeasures/StructureDefinition/cqfm-isTestCase","valueBoolean":true}],"status":"complete","type":"individual","measure":"https://madie.cms.gov/Measure/AntithromboticTherapyByEndofHospitalDay2FHIR","period":{"start":"2025-01-01","end":"2025-12-31"},"group":[{"population":[{"code":{"coding":[{"system":"http://terminology.hl7.org/CodeSystem/measure-population","code":"initial-population","display":"Initial Population"}]},"count":1},{"code":{"coding":[{"system":"http://terminology.hl7.org/CodeSystem/measure-population","code":"denominator","display":"Denominator"}]},"count":1},{"code":{"coding":[{"system":"http://terminology.hl7.org/CodeSystem/measure-population","code":"denominator-exclusion","display":"Denominator Exclusion"}]},"count":0},{"code":{"coding":[{"system":"http://terminology.hl7.org/CodeSystem/measure-population","code":"numerator","display":"Numerator"}]},"count":0},{"code":{"coding":[{"system":"http://terminology.hl7.org/CodeSystem/measure-population","code":"denominator-exception","display":"Denominator Exception"}]},"count":1}]}]},"request":{"method":"PUT","url":"MeasureReport/fb726195-9cbe-4fcf-b750-b174a6639405"}}]}