{"resourceType":"Bundle","id":"tests-5adf0120-b2f5-415f-b1ff-1684d9f4af7a-bundle","type":"transaction","entry":[{"fullUrl":"https://madie.cms.gov/Patient/5adf0120-b2f5-415f-b1ff-1684d9f4af7a","resource":{"resourceType":"Patient","id":"5adf0120-b2f5-415f-b1ff-1684d9f4af7a","meta":{"profile":["http://hl7.org/fhir/us/qicore/StructureDefinition/qicore-patient"]},"text":{"status":"generated","div":"<div xmlns=\"http://www.w3.org/1999/xhtml\"><div class=\"hapiHeaderText\">CMP&gt;1day_DuringED <b>DENEXFAIL </b></div><table class=\"hapiPropertyTable\"><tbody><tr><td>Identifier</td><td>913895259ed1aaae0168674c79769d52</td></tr><tr><td>Date of birth</td><td><span>26 September 1975</span></td></tr></tbody></table></div>"},"extension":[{"url":"http://hl7.org/fhir/us/core/StructureDefinition/us-core-race","extension":[{"url":"ombCategory","valueCoding":{"system":"urn:oid:2.16.840.1.113883.6.238","code":"2054-5","display":"Black or African American","userSelected":true}},{"url":"text","valueString":"Black or African American"}]},{"url":"http://hl7.org/fhir/us/core/StructureDefinition/us-core-ethnicity","extension":[{"url":"ombCategory","valueCoding":{"system":"urn:oid:2.16.840.1.113883.6.238","code":"2186-5","display":"Not Hispanic or Latino","userSelected":true}},{"url":"text","valueString":"Not Hispanic or Latino"}]}],"identifier":[{"type":{"coding":[{"system":"http://terminology.hl7.org/CodeSystem/v2-0203","code":"MR"}]},"system":"https://bonnie-fhir.healthit.gov/","value":"60f82c2e98086b570510e265"}],"active":true,"name":[{"use":"usual","family":"DENEXFail","given":["CMP>1day_DuringED"]}],"gender":"female","birthDate":"1975-09-26"},"request":{"method":"PUT","url":"Patient/5adf0120-b2f5-415f-b1ff-1684d9f4af7a"}},{"fullUrl":"https://madie.cms.gov/Encounter/5c954892b848462de0ae61e7","resource":{"resourceType":"Encounter","id":"5c954892b848462de0ae61e7","meta":{"profile":["http://hl7.org/fhir/us/qicore/StructureDefinition/qicore-encounter"]},"status":"finished","class":{"system":"http://terminology.hl7.org/CodeSystem/v3-ActCode","code":"EMER","display":"emergency","userSelected":true},"type":[{"coding":[{"system":"http://snomed.info/sct","code":"4525004"}]}],"subject":{"reference":"Patient/5adf0120-b2f5-415f-b1ff-1684d9f4af7a"},"period":{"start":"2025-10-10T06:00:00+00:00","end":"2025-10-12T06:15:00+00:00"},"length":{"value":2.0,"unit":"days"}},"request":{"method":"PUT","url":"Encounter/5c954892b848462de0ae61e7"}},{"fullUrl":"https://madie.cms.gov/Encounter/5c954892b848462de0ae61e8","resource":{"resourceType":"Encounter","id":"5c954892b848462de0ae61e8","meta":{"profile":["http://hl7.org/fhir/us/qicore/StructureDefinition/qicore-encounter"]},"status":"finished","class":{"system":"http://terminology.hl7.org/CodeSystem/v3-ActCode","code":"IMP","display":"inpatient encounter","userSelected":true},"type":[{"coding":[{"system":"http://snomed.info/sct","code":"32485007"}]}],"subject":{"reference":"Patient/5adf0120-b2f5-415f-b1ff-1684d9f4af7a"},"period":{"start":"2025-10-12T06:15:00+00:00","end":"2025-10-15T11:15:00+00:00"},"length":{"value":3.0,"unit":"days"},"diagnosis":[{"condition":{"reference":"Condition/ischemic-stroke-b879"},"use":{"coding":[{"system":"http://snomed.info/sct","code":"111297002","display":"Ischemic Stroke"}]},"rank":1}]},"request":{"method":"PUT","url":"Encounter/5c954892b848462de0ae61e8"}},{"fullUrl":"https://madie.cms.gov/Procedure/5c954892b848462de0ae61ea","resource":{"resourceType":"Procedure","id":"5c954892b848462de0ae61ea","meta":{"profile":["http://hl7.org/fhir/us/qicore/StructureDefinition/qicore-procedure"]},"extension":[{"url":"http://hl7.org/fhir/us/qicore/StructureDefinition/qicore-recorded","valueDateTime":"2013-04-05T09:35:00-04:00"}],"status":"completed","code":{"coding":[{"system":"http://snomed.info/sct","code":"133918004"}]},"subject":{"reference":"Patient/5adf0120-b2f5-415f-b1ff-1684d9f4af7a"},"performedPeriod":{"start":"2025-10-12T00:00:00+00:00","end":"2025-10-12T20:15:00+00:00"}},"request":{"method":"PUT","url":"Procedure/5c954892b848462de0ae61ea"}},{"fullUrl":"https://madie.cms.gov/Coverage/5e20a3681c76ba6c5896ebc8","resource":{"resourceType":"Coverage","id":"5e20a3681c76ba6c5896ebc8","status":"active","beneficiary":{"reference":"Patient/5adf0120-b2f5-415f-b1ff-1684d9f4af7a"},"period":{"start":"1975-09-26T08:00:00+00:00"},"payor":[{"reference":"Organization/Org-123456"}]},"request":{"method":"PUT","url":"Coverage/5e20a3681c76ba6c5896ebc8"}},{"fullUrl":"https://madie.cms.gov/Condition/ischemic-stroke-b879","resource":{"resourceType":"Condition","id":"ischemic-stroke-b879","meta":{"profile":["http://hl7.org/fhir/us/qicore/StructureDefinition/qicore-condition"]},"clinicalStatus":{"coding":[{"system":"http://terminology.hl7.org/CodeSystem/condition-clinical","code":"active"}]},"verificationStatus":{"coding":[{"system":"http://terminology.hl7.org/CodeSystem/condition-ver-status","code":"confirmed"}]},"category":[{"coding":[{"system":"http://terminology.hl7.org/CodeSystem/condition-category","code":"encounter-diagnosis","display":"Encounter Diagnosis"}]}],"code":{"coding":[{"system":"http://snomed.info/sct","version":"2020-09","code":"111297002","display":"Nonparalytic stroke (disorder)","userSelected":true}]},"subject":{"reference":"Patient/5adf0120-b2f5-415f-b1ff-1684d9f4af7a"},"recordedDate":"2025-08-11T08:00:00.000+00:00"},"request":{"method":"PUT","url":"Condition/ischemic-stroke-b879"}},{"fullUrl":"https://madie.cms.gov/Organization/123456","resource":{"resourceType":"Organization","id":"Org-123456","meta":{"profile":["http://hl7.org/fhir/us/qicore/StructureDefinition/qicore-organization"]},"identifier":[{"use":"temp","system":"urn:oid:2.16.840.1.113883.4.4","value":"21-3259825"}],"active":true,"type":[{"coding":[{"system":"http://terminology.hl7.org/CodeSystem/organization-type","code":"pay","display":"Payer"}]}],"name":"Blue Cross Blue Shield of Texas","telecom":[{"system":"phone","value":"(+1) 972-766-6900"}],"address":[{"use":"billing","type":"postal","line":["P.O. Box 660044"],"city":"Dallas","state":"TX","postalCode":"75266-0044","country":"USA"}]},"request":{"method":"PUT","url":"Organization/Org-123456"}},{"fullUrl":"https://madie.cms.gov/MeasureReport/46f7538d-3373-48a3-9509-74af0848ef7b","resource":{"resourceType":"MeasureReport","id":"46f7538d-3373-48a3-9509-74af0848ef7b","meta":{"profile":["http://hl7.org/fhir/us/cqfmeasures/StructureDefinition/test-case-cqfm"]},"contained":[{"resourceType":"Parameters","id":"ca46d3c8-dd46-41e3-b350-9fa4d49ebfa8-parameters","parameter":[{"name":"subject","valueString":"5adf0120-b2f5-415f-b1ff-1684d9f4af7a"}]}],"extension":[{"url":"http://hl7.org/fhir/us/cqfmeasures/StructureDefinition/cqfm-inputParameters","valueReference":{"reference":"#ca46d3c8-dd46-41e3-b350-9fa4d49ebfa8-parameters"}},{"url":"http://hl7.org/fhir/us/cqfmeasures/StructureDefinition/cqfm-testCaseDescription","valueMarkdown":"Patient receives comfort measures order > 1 day after start of ED visit (long ED stay)\n"}],"modifierExtension":[{"url":"http://hl7.org/fhir/us/cqfmeasures/StructureDefinition/cqfm-isTestCase","valueBoolean":true}],"status":"complete","type":"individual","measure":"https://madie.cms.gov/Measure/AntithromboticTherapyByEndofHospitalDay2FHIR","period":{"start":"2025-01-01","end":"2025-12-31"},"group":[{"population":[{"code":{"coding":[{"system":"http://terminology.hl7.org/CodeSystem/measure-population","code":"initial-population","display":"Initial Population"}]},"count":1},{"code":{"coding":[{"system":"http://terminology.hl7.org/CodeSystem/measure-population","code":"denominator","display":"Denominator"}]},"count":1},{"code":{"coding":[{"system":"http://terminology.hl7.org/CodeSystem/measure-population","code":"denominator-exclusion","display":"Denominator Exclusion"}]},"count":0},{"code":{"coding":[{"system":"http://terminology.hl7.org/CodeSystem/measure-population","code":"numerator","display":"Numerator"}]},"count":0},{"code":{"coding":[{"system":"http://terminology.hl7.org/CodeSystem/measure-population","code":"denominator-exception","display":"Denominator Exception"}]},"count":0}]}],"evaluatedResource":[{"reference":"Patient/5adf0120-b2f5-415f-b1ff-1684d9f4af7a"},{"reference":"Encounter/5c954892b848462de0ae61e7"},{"reference":"Encounter/5c954892b848462de0ae61e8"},{"reference":"Procedure/5c954892b848462de0ae61ea"},{"reference":"Coverage/5e20a3681c76ba6c5896ebc8"},{"reference":"Condition/ischemic-stroke-b879"},{"reference":"Organization/Org-123456"}]},"request":{"method":"PUT","url":"MeasureReport/46f7538d-3373-48a3-9509-74af0848ef7b"}}]}