{"resourceType":"Bundle","id":"tests-ebdb2548-e2a1-4cee-a7df-c824f80b4eab-bundle","type":"transaction","entry":[{"fullUrl":"https://madie.cms.gov/Patient/ebdb2548-e2a1-4cee-a7df-c824f80b4eab","resource":{"resourceType":"Patient","id":"ebdb2548-e2a1-4cee-a7df-c824f80b4eab","meta":{"profile":["http://hl7.org/fhir/us/qicore/StructureDefinition/qicore-patient"]},"extension":[{"url":"http://hl7.org/fhir/us/core/StructureDefinition/us-core-race","extension":[{"url":"ombCategory","valueCoding":{"system":"urn:oid:2.16.840.1.113883.6.238","code":"2028-9","display":"Asian","userSelected":true}},{"url":"text","valueString":"Asian"}]},{"url":"http://hl7.org/fhir/us/core/StructureDefinition/us-core-ethnicity","extension":[{"url":"ombCategory","valueCoding":{"system":"urn:oid:2.16.840.1.113883.6.238","code":"2186-5","display":"Not Hispanic or Latino","userSelected":true}},{"url":"text","valueString":"Not Hispanic or Latino"}]}],"identifier":[{"type":{"coding":[{"system":"http://terminology.hl7.org/CodeSystem/v2-0203","code":"MR"}]},"system":"https://bonnie-fhir.healthit.gov/","value":"617be6951619a529957d62b4"}],"name":[{"family":"DenExcl6Fail","given":["MedStartsWayBeforeED"]}],"gender":"female","birthDate":"1984-12-02"},"request":{"method":"PUT","url":"Patient/ebdb2548-e2a1-4cee-a7df-c824f80b4eab"}},{"fullUrl":"https://madie.cms.gov/Encounter/emergency-department-visit-62b0","resource":{"resourceType":"Encounter","id":"a252186a-c08f-4fbd-a4c9-3c0f0e11a3ab","meta":{"profile":["http://hl7.org/fhir/us/qicore/StructureDefinition/qicore-encounter"]},"status":"finished","class":{"system":"http://terminology.hl7.org/CodeSystem/v3-ActCode","code":"EMER","display":"emergency","userSelected":true},"type":[{"coding":[{"system":"http://snomed.info/sct","version":"2020-09","code":"4525004","display":"Emergency department patient visit (procedure)","userSelected":true}]}],"subject":{"reference":"Patient/ebdb2548-e2a1-4cee-a7df-c824f80b4eab"},"period":{"start":"2025-10-09T08:05:00.000+00:00","end":"2025-10-10T07:15:00.000+00:00"},"reasonCode":[{"coding":[{"system":"http://hl7.org/fhir/sid/icd-10-cm","version":"2021","code":"I21.02","display":"ST elevation (STEMI) myocardial infarction involving left anterior descending coronary artery","userSelected":true}]}]},"request":{"method":"PUT","url":"Encounter/a252186a-c08f-4fbd-a4c9-3c0f0e11a3ab"}},{"fullUrl":"https://madie.cms.gov/MedicationRequest/anticoagulant-medications-oral-62b1","resource":{"resourceType":"MedicationRequest","id":"06b005fe-9751-4ed8-9df1-64b0d36fd982","meta":{"profile":["http://hl7.org/fhir/us/qicore/StructureDefinition/qicore-medicationrequest"]},"status":"active","intent":"order","category":[{"coding":[{"system":"http://terminology.hl7.org/CodeSystem/medicationrequest-category","code":"inpatient","display":"Inpatient","userSelected":true}]}],"medicationCodeableConcept":{"coding":[{"system":"http://www.nlm.nih.gov/research/umls/rxnorm","version":"2021-01","code":"1114202","display":"rivaroxaban 10 MG Oral Tablet [Xarelto]","userSelected":true}]},"subject":{"reference":"Patient/ebdb2548-e2a1-4cee-a7df-c824f80b4eab"},"authoredOn":"2025-06-02T08:00:00.000+00:00","requester":{"reference":"Practitioner/practitioner-123456"}},"request":{"method":"PUT","url":"MedicationRequest/06b005fe-9751-4ed8-9df1-64b0d36fd982"}},{"fullUrl":"https://madie.cms.gov/Practitioner/practitioner-123456","resource":{"resourceType":"Practitioner","id":"106d6a6b-c351-4c61-9656-ea54a7a1bf3b","meta":{"profile":["http://hl7.org/fhir/us/qicore/StructureDefinition/qicore-practitioner"]},"identifier":[{"system":"http://hl7.org/fhir/sid/us-npi","value":"123456"}],"name":[{"family":"Evil","prefix":["Dr"]}]},"request":{"method":"PUT","url":"Practitioner/106d6a6b-c351-4c61-9656-ea54a7a1bf3b"}},{"fullUrl":"https://madie.cms.gov/MeasureReport/0471adba-7fe0-4ce7-85a3-48fb43945e48","resource":{"resourceType":"MeasureReport","id":"0471adba-7fe0-4ce7-85a3-48fb43945e48","meta":{"profile":["http://hl7.org/fhir/us/cqfmeasures/StructureDefinition/test-case-cqfm"]},"contained":[{"resourceType":"Parameters","id":"f03dda63-3c8c-4b2a-b268-8713d73b48cc-parameters","parameter":[{"name":"subject","valueString":"ebdb2548-e2a1-4cee-a7df-c824f80b4eab"}]}],"extension":[{"url":"http://hl7.org/fhir/us/cqfmeasures/StructureDefinition/cqfm-inputParameters","valueReference":{"reference":"#f03dda63-3c8c-4b2a-b268-8713d73b48cc-parameters"}},{"url":"http://hl7.org/fhir/us/cqfmeasures/StructureDefinition/cqfm-testCaseDescription","valueMarkdown":"Patient has anticoagulant medication starts way before ED"}],"modifierExtension":[{"url":"http://hl7.org/fhir/us/cqfmeasures/StructureDefinition/cqfm-isTestCase","valueBoolean":true}],"status":"complete","type":"individual","measure":"https://madie.cms.gov/Measure/AppropriateTreatmentforSTEMIFHIR","period":{"start":"2025-01-01","end":"2025-12-31"},"group":[{"population":[{"code":{"coding":[{"system":"http://terminology.hl7.org/CodeSystem/measure-population","code":"initial-population","display":"Initial Population"}]},"count":1},{"code":{"coding":[{"system":"http://terminology.hl7.org/CodeSystem/measure-population","code":"denominator","display":"Denominator"}]},"count":1},{"code":{"coding":[{"system":"http://terminology.hl7.org/CodeSystem/measure-population","code":"denominator-exclusion","display":"Denominator Exclusion"}]},"count":0},{"code":{"coding":[{"system":"http://terminology.hl7.org/CodeSystem/measure-population","code":"numerator","display":"Numerator"}]},"count":0},{"code":{"coding":[{"system":"http://terminology.hl7.org/CodeSystem/measure-population","code":"denominator-exception","display":"Denominator Exception"}]},"count":0}]}]},"request":{"method":"PUT","url":"MeasureReport/0471adba-7fe0-4ce7-85a3-48fb43945e48"}}]}