{"resourceType":"Bundle","id":"tests-9a0727fd-6922-4fcc-9d7f-0bfd5c2f473b-bundle","type":"transaction","entry":[{"fullUrl":"https://madie.cms.gov/Patient/9a0727fd-6922-4fcc-9d7f-0bfd5c2f473b","resource":{"resourceType":"Patient","id":"9a0727fd-6922-4fcc-9d7f-0bfd5c2f473b","meta":{"profile":["http://hl7.org/fhir/us/qicore/StructureDefinition/qicore-patient"]},"extension":[{"url":"http://hl7.org/fhir/us/core/StructureDefinition/us-core-race","extension":[{"url":"ombCategory","valueCoding":{"system":"urn:oid:2.16.840.1.113883.6.238","code":"2076-8","display":"Native Hawaiian or Other Pacific Islander","userSelected":true}},{"url":"text","valueString":"Native Hawaiian or Other Pacific Islander"}]},{"url":"http://hl7.org/fhir/us/core/StructureDefinition/us-core-ethnicity","extension":[{"url":"ombCategory","valueCoding":{"system":"urn:oid:2.16.840.1.113883.6.238","code":"2186-5","display":"Not Hispanic or Latino","userSelected":true}},{"url":"text","valueString":"Not Hispanic or Latino"}]}],"identifier":[{"type":{"coding":[{"system":"http://terminology.hl7.org/CodeSystem/v2-0203","code":"MR"}]},"system":"https://bonnie-fhir.healthit.gov/","value":"6179e1a9e2011aa9929f330d"}],"name":[{"family":"DenExcl1Fail","given":["DxExclStartsBeforeEndsBeforeED"]}],"gender":"female","birthDate":"1984-12-02"},"request":{"method":"PUT","url":"Patient/9a0727fd-6922-4fcc-9d7f-0bfd5c2f473b"}},{"fullUrl":"https://madie.cms.gov/Encounter/emergency-department-visit-330a","resource":{"resourceType":"Encounter","id":"emergency-department-visit-330a","meta":{"profile":["http://hl7.org/fhir/us/qicore/StructureDefinition/qicore-encounter"]},"status":"finished","class":{"system":"http://terminology.hl7.org/CodeSystem/v3-ActCode","code":"EMER","display":"emergency","userSelected":true},"type":[{"coding":[{"system":"http://snomed.info/sct","version":"2020-09","code":"4525004","display":"Emergency department patient visit (procedure)","userSelected":true}]}],"subject":{"reference":"Patient/9a0727fd-6922-4fcc-9d7f-0bfd5c2f473b"},"period":{"start":"2025-10-09T08:05:00.000+00:00","end":"2025-10-10T07:15:00.000+00:00"}},"request":{"method":"PUT","url":"Encounter/emergency-department-visit-330a"}},{"fullUrl":"https://madie.cms.gov/Condition/stemi-330b","resource":{"resourceType":"Condition","id":"stemi-330b","meta":{"profile":["http://hl7.org/fhir/us/qicore/StructureDefinition/qicore-condition"]},"clinicalStatus":{"coding":[{"system":"http://terminology.hl7.org/CodeSystem/condition-clinical","code":"active","display":"active","userSelected":true}]},"category":[{"coding":[{"system":"http://terminology.hl7.org/CodeSystem/condition-category","code":"encounter-diagnosis","display":"Encounter Diagnosis","userSelected":true}]}],"code":{"coding":[{"system":"http://snomed.info/sct","version":"2020-09","code":"401303003","display":"Acute ST segment elevation myocardial infarction (disorder)","userSelected":true}]},"subject":{"reference":"Patient/9a0727fd-6922-4fcc-9d7f-0bfd5c2f473b"},"onsetDateTime":"2025-10-09T08:30:00.000+00:00"},"request":{"method":"PUT","url":"Condition/stemi-330b"}},{"fullUrl":"https://madie.cms.gov/Condition/neurologic-impairment-330c","resource":{"resourceType":"Condition","id":"neurologic-impairment-330c","meta":{"profile":["http://hl7.org/fhir/us/qicore/StructureDefinition/qicore-condition"]},"clinicalStatus":{"coding":[{"system":"http://terminology.hl7.org/CodeSystem/condition-clinical","version":"4.0.1","code":"inactive","display":"Inactive","userSelected":true}]},"category":[{"coding":[{"system":"http://terminology.hl7.org/CodeSystem/condition-category","code":"encounter-diagnosis","display":"Encounter Diagnosis","userSelected":true}]}],"code":{"coding":[{"system":"http://snomed.info/sct","version":"2020-09","code":"111633007","display":"Open fracture of sacrum AND/OR coccyx with complete cauda equina lesion (disorder)","userSelected":true}]},"subject":{"reference":"Patient/9a0727fd-6922-4fcc-9d7f-0bfd5c2f473b"},"onsetDateTime":"2025-01-08T08:00:00.000+00:00","abatementDateTime":"2025-04-08T08:15:00.000+00:00"},"request":{"method":"PUT","url":"Condition/neurologic-impairment-330c"}},{"fullUrl":"https://madie.cms.gov/MeasureReport/6862ad28-01a6-4d97-87d1-6a501923d412","resource":{"resourceType":"MeasureReport","id":"6862ad28-01a6-4d97-87d1-6a501923d412","meta":{"profile":["http://hl7.org/fhir/us/cqfmeasures/StructureDefinition/test-case-cqfm"]},"contained":[{"resourceType":"Parameters","id":"138344b5-8ab3-48fe-8f02-633ff875daf1-parameters","parameter":[{"name":"subject","valueString":"9a0727fd-6922-4fcc-9d7f-0bfd5c2f473b"}]}],"extension":[{"url":"http://hl7.org/fhir/us/cqfmeasures/StructureDefinition/cqfm-inputParameters","valueReference":{"reference":"#138344b5-8ab3-48fe-8f02-633ff875daf1-parameters"}},{"url":"http://hl7.org/fhir/us/cqfmeasures/StructureDefinition/cqfm-testCaseDescription","valueMarkdown":"Patient has Neurologic Impairment (exclusion diagnosis) that starts before ED encounter and ends before ED"}],"modifierExtension":[{"url":"http://hl7.org/fhir/us/cqfmeasures/StructureDefinition/cqfm-isTestCase","valueBoolean":true}],"status":"complete","type":"individual","measure":"https://madie.cms.gov/Measure/AppropriateTreatmentforSTEMIFHIR","period":{"start":"2025-01-01","end":"2025-12-31"},"group":[{"population":[{"code":{"coding":[{"system":"http://terminology.hl7.org/CodeSystem/measure-population","code":"initial-population","display":"Initial Population"}]},"count":1},{"code":{"coding":[{"system":"http://terminology.hl7.org/CodeSystem/measure-population","code":"denominator","display":"Denominator"}]},"count":1},{"code":{"coding":[{"system":"http://terminology.hl7.org/CodeSystem/measure-population","code":"denominator-exclusion","display":"Denominator Exclusion"}]},"count":0},{"code":{"coding":[{"system":"http://terminology.hl7.org/CodeSystem/measure-population","code":"numerator","display":"Numerator"}]},"count":0},{"code":{"coding":[{"system":"http://terminology.hl7.org/CodeSystem/measure-population","code":"denominator-exception","display":"Denominator Exception"}]},"count":0}]}],"evaluatedResource":[{"reference":"Patient/9a0727fd-6922-4fcc-9d7f-0bfd5c2f473b"},{"reference":"Encounter/emergency-department-visit-330a"},{"reference":"Condition/stemi-330b"},{"reference":"Condition/neurologic-impairment-330c"}]},"request":{"method":"PUT","url":"MeasureReport/6862ad28-01a6-4d97-87d1-6a501923d412"}}]}