{"resourceType":"Bundle","id":"tests-4a3a512c-b5bd-4da7-a8ed-a4cf56dfec29-bundle","type":"transaction","entry":[{"fullUrl":"https://madie.cms.gov/Patient/4a3a512c-b5bd-4da7-a8ed-a4cf56dfec29","resource":{"resourceType":"Patient","id":"4a3a512c-b5bd-4da7-a8ed-a4cf56dfec29","meta":{"profile":["http://hl7.org/fhir/us/qicore/StructureDefinition/qicore-patient"]},"extension":[{"url":"http://hl7.org/fhir/us/core/StructureDefinition/us-core-race","extension":[{"url":"ombCategory","valueCoding":{"system":"urn:oid:2.16.840.1.113883.6.238","code":"2076-8","display":"Native Hawaiian or Other Pacific Islander","userSelected":true}},{"url":"text","valueString":"Native Hawaiian or Other Pacific Islander"}]},{"url":"http://hl7.org/fhir/us/core/StructureDefinition/us-core-ethnicity","extension":[{"url":"ombCategory","valueCoding":{"system":"urn:oid:2.16.840.1.113883.6.238","code":"2186-5","display":"Not Hispanic or Latino","userSelected":true}},{"url":"text","valueString":"Not Hispanic or Latino"}]}],"identifier":[{"type":{"coding":[{"system":"http://terminology.hl7.org/CodeSystem/v2-0203","code":"MR"}]},"system":"https://bonnie-fhir.healthit.gov/","value":"617835c74bf8e25b8f204e27"}],"name":[{"family":"NumPass","given":["Depart45minsfromEDstart"]}],"gender":"female","birthDate":"1984-12-02"},"request":{"method":"PUT","url":"Patient/4a3a512c-b5bd-4da7-a8ed-a4cf56dfec29"}},{"fullUrl":"https://madie.cms.gov/Encounter/emergency-department-visit-4e28","resource":{"resourceType":"Encounter","id":"emergency-department-visit-4e28","meta":{"profile":["http://hl7.org/fhir/us/qicore/StructureDefinition/qicore-encounter"]},"status":"finished","class":{"system":"http://terminology.hl7.org/CodeSystem/v3-ActCode","code":"EMER","display":"emergency","userSelected":true},"type":[{"coding":[{"system":"http://snomed.info/sct","version":"2020-09","code":"4525004","display":"Emergency department patient visit (procedure)","userSelected":true}]}],"subject":{"reference":"Patient/4a3a512c-b5bd-4da7-a8ed-a4cf56dfec29"},"period":{"start":"2025-10-09T08:05:00.000+00:00","end":"2025-10-09T08:50:00.000+00:00"},"diagnosis":[{"condition":{"reference":"Condition/stemi-4e29"}}],"hospitalization":{"dischargeDisposition":{"coding":[{"system":"http://snomed.info/sct","version":"2020-09","code":"306703003","display":"Discharge to tertiary referral hospital (procedure)","userSelected":true}]}}},"request":{"method":"PUT","url":"Encounter/emergency-department-visit-4e28"}},{"fullUrl":"https://madie.cms.gov/Condition/stemi-4e29","resource":{"resourceType":"Condition","id":"stemi-4e29","meta":{"profile":["http://hl7.org/fhir/us/qicore/StructureDefinition/qicore-condition"]},"clinicalStatus":{"coding":[{"system":"http://terminology.hl7.org/CodeSystem/condition-clinical","code":"active","display":"active","userSelected":true}]},"category":[{"coding":[{"system":"http://terminology.hl7.org/CodeSystem/condition-category","code":"encounter-diagnosis","display":"Encounter Diagnosis","userSelected":true}]}],"code":{"coding":[{"system":"http://hl7.org/fhir/sid/icd-10-cm","code":"I21.3","userSelected":true}]},"subject":{"reference":"Patient/4a3a512c-b5bd-4da7-a8ed-a4cf56dfec29"},"onsetDateTime":"2025-10-09T08:11:00.000+00:00"},"request":{"method":"PUT","url":"Condition/stemi-4e29"}},{"fullUrl":"https://madie.cms.gov/MeasureReport/8ba3c407-a946-4a9b-ad4d-321d8d59f2f4","resource":{"resourceType":"MeasureReport","id":"8ba3c407-a946-4a9b-ad4d-321d8d59f2f4","meta":{"profile":["http://hl7.org/fhir/us/cqfmeasures/StructureDefinition/test-case-cqfm"]},"contained":[{"resourceType":"Parameters","id":"d02fdd3e-a70c-4ef8-9c70-1a5045ed2f24-parameters","parameter":[{"name":"subject","valueString":"4a3a512c-b5bd-4da7-a8ed-a4cf56dfec29"}]}],"extension":[{"url":"http://hl7.org/fhir/us/cqfmeasures/StructureDefinition/cqfm-inputParameters","valueReference":{"reference":"#d02fdd3e-a70c-4ef8-9c70-1a5045ed2f24-parameters"}},{"url":"http://hl7.org/fhir/us/cqfmeasures/StructureDefinition/cqfm-testCaseDescription","valueMarkdown":"ED ends 45 minutes after start time to be transferred to acute care facility"}],"modifierExtension":[{"url":"http://hl7.org/fhir/us/cqfmeasures/StructureDefinition/cqfm-isTestCase","valueBoolean":true}],"status":"complete","type":"individual","measure":"https://madie.cms.gov/Measure/AppropriateTreatmentforSTEMIFHIR","period":{"start":"2025-01-01","end":"2025-12-31"},"group":[{"population":[{"code":{"coding":[{"system":"http://terminology.hl7.org/CodeSystem/measure-population","code":"initial-population","display":"Initial Population"}]},"count":1},{"code":{"coding":[{"system":"http://terminology.hl7.org/CodeSystem/measure-population","code":"denominator","display":"Denominator"}]},"count":1},{"code":{"coding":[{"system":"http://terminology.hl7.org/CodeSystem/measure-population","code":"denominator-exclusion","display":"Denominator Exclusion"}]},"count":0},{"code":{"coding":[{"system":"http://terminology.hl7.org/CodeSystem/measure-population","code":"numerator","display":"Numerator"}]},"count":1},{"code":{"coding":[{"system":"http://terminology.hl7.org/CodeSystem/measure-population","code":"denominator-exception","display":"Denominator Exception"}]},"count":0}]}],"evaluatedResource":[{"reference":"Patient/4a3a512c-b5bd-4da7-a8ed-a4cf56dfec29"},{"reference":"Encounter/emergency-department-visit-4e28"},{"reference":"Condition/stemi-4e29"}]},"request":{"method":"PUT","url":"MeasureReport/8ba3c407-a946-4a9b-ad4d-321d8d59f2f4"}}]}