{"resourceType":"Bundle","id":"tests-ae9b2ef7-b1a1-454e-8ada-811a48fd9008-bundle","type":"transaction","entry":[{"fullUrl":"https://madie.cms.gov/Patient/ae9b2ef7-b1a1-454e-8ada-811a48fd9008","resource":{"resourceType":"Patient","id":"ae9b2ef7-b1a1-454e-8ada-811a48fd9008","meta":{"profile":["http://hl7.org/fhir/us/qicore/StructureDefinition/qicore-patient"]},"extension":[{"url":"http://hl7.org/fhir/us/core/StructureDefinition/us-core-race","extension":[{"url":"ombCategory","valueCoding":{"system":"urn:oid:2.16.840.1.113883.6.238","code":"2076-8","display":"Native Hawaiian or Other Pacific Islander","userSelected":true}},{"url":"text","valueString":"Native Hawaiian or Other Pacific Islander"}]},{"url":"http://hl7.org/fhir/us/core/StructureDefinition/us-core-ethnicity","extension":[{"url":"ombCategory","valueCoding":{"system":"urn:oid:2.16.840.1.113883.6.238","code":"2135-2","display":"Hispanic or Latino","userSelected":true}},{"url":"text","valueString":"Hispanic or Latino"}]}],"identifier":[{"type":{"coding":[{"system":"http://terminology.hl7.org/CodeSystem/v2-0203","code":"MR"}]},"system":"https://bonnie-fhir.healthit.gov/","value":"617bfa581289f5673c8ceff8"}],"name":[{"family":"DenExcl9Fail","given":["AdverseEventStartsAfterED"]}],"gender":"female","birthDate":"1984-12-02"},"request":{"method":"PUT","url":"Patient/ae9b2ef7-b1a1-454e-8ada-811a48fd9008"}},{"fullUrl":"https://madie.cms.gov/Encounter/emergency-department-visit-eff9","resource":{"resourceType":"Encounter","id":"emergency-department-visit-eff9","meta":{"profile":["http://hl7.org/fhir/us/qicore/StructureDefinition/qicore-encounter"]},"status":"finished","class":{"system":"http://terminology.hl7.org/CodeSystem/v3-ActCode","code":"EMER","display":"emergency","userSelected":true},"type":[{"coding":[{"system":"http://snomed.info/sct","version":"2020-09","code":"4525004","display":"Emergency department patient visit (procedure)","userSelected":true}]}],"subject":{"reference":"Patient/ae9b2ef7-b1a1-454e-8ada-811a48fd9008"},"period":{"start":"2025-10-09T08:05:00.000+00:00","end":"2025-10-10T07:15:00.000+00:00"},"reasonCode":[{"coding":[{"system":"http://hl7.org/fhir/sid/icd-10-cm","version":"2021","code":"I21.21","display":"ST elevation (STEMI) myocardial infarction involving left circumflex coronary artery","userSelected":true}]}]},"request":{"method":"PUT","url":"Encounter/emergency-department-visit-eff9"}},{"fullUrl":"https://madie.cms.gov/AdverseEvent/thrombolytic-medications-effa","resource":{"resourceType":"AdverseEvent","id":"thrombolytic-medications-effa","meta":{"profile":["http://hl7.org/fhir/us/qicore/StructureDefinition/qicore-adverseevent"]},"actuality":"actual","event":{"coding":[{"system":"http://www.nlm.nih.gov/research/umls/rxnorm","code":"76895","userSelected":true}]},"subject":{"reference":"Patient/ae9b2ef7-b1a1-454e-8ada-811a48fd9008"},"date":"2025-12-09T11:00:00.000+00:00"},"request":{"method":"PUT","url":"AdverseEvent/thrombolytic-medications-effa"}},{"fullUrl":"https://madie.cms.gov/MeasureReport/12ef075a-9aa5-40e8-90d1-479f07fcc755","resource":{"resourceType":"MeasureReport","id":"12ef075a-9aa5-40e8-90d1-479f07fcc755","meta":{"profile":["http://hl7.org/fhir/us/cqfmeasures/StructureDefinition/test-case-cqfm"]},"contained":[{"resourceType":"Parameters","id":"bc47aad7-ffdf-49f2-9a7b-4117f67436ef-parameters","parameter":[{"name":"subject","valueString":"ae9b2ef7-b1a1-454e-8ada-811a48fd9008"}]}],"extension":[{"url":"http://hl7.org/fhir/us/cqfmeasures/StructureDefinition/cqfm-inputParameters","valueReference":{"reference":"#bc47aad7-ffdf-49f2-9a7b-4117f67436ef-parameters"}},{"url":"http://hl7.org/fhir/us/cqfmeasures/StructureDefinition/cqfm-testCaseDescription","valueMarkdown":"Patient has adverse event starts after ED"}],"modifierExtension":[{"url":"http://hl7.org/fhir/us/cqfmeasures/StructureDefinition/cqfm-isTestCase","valueBoolean":true}],"status":"complete","type":"individual","measure":"https://madie.cms.gov/Measure/AppropriateTreatmentforSTEMIFHIR","period":{"start":"2025-01-01","end":"2025-12-31"},"group":[{"population":[{"code":{"coding":[{"system":"http://terminology.hl7.org/CodeSystem/measure-population","code":"initial-population","display":"Initial Population"}]},"count":1},{"code":{"coding":[{"system":"http://terminology.hl7.org/CodeSystem/measure-population","code":"denominator","display":"Denominator"}]},"count":1},{"code":{"coding":[{"system":"http://terminology.hl7.org/CodeSystem/measure-population","code":"denominator-exclusion","display":"Denominator Exclusion"}]},"count":0},{"code":{"coding":[{"system":"http://terminology.hl7.org/CodeSystem/measure-population","code":"numerator","display":"Numerator"}]},"count":0},{"code":{"coding":[{"system":"http://terminology.hl7.org/CodeSystem/measure-population","code":"denominator-exception","display":"Denominator Exception"}]},"count":0}]}],"evaluatedResource":[{"reference":"Patient/ae9b2ef7-b1a1-454e-8ada-811a48fd9008"},{"reference":"Encounter/emergency-department-visit-eff9"},{"reference":"AdverseEvent/thrombolytic-medications-effa"}]},"request":{"method":"PUT","url":"MeasureReport/12ef075a-9aa5-40e8-90d1-479f07fcc755"}}]}