{"resourceType":"Bundle","id":"tests-afb2d04b-f766-465a-9215-79cb8dfafd73-bundle","type":"transaction","entry":[{"fullUrl":"https://madie.cms.gov/Patient/afb2d04b-f766-465a-9215-79cb8dfafd73","resource":{"resourceType":"Patient","id":"afb2d04b-f766-465a-9215-79cb8dfafd73","meta":{"profile":["http://hl7.org/fhir/us/qicore/StructureDefinition/qicore-patient"]},"extension":[{"url":"http://hl7.org/fhir/us/core/StructureDefinition/us-core-race","extension":[{"url":"ombCategory","valueCoding":{"system":"urn:oid:2.16.840.1.113883.6.238","code":"2028-9","display":"Asian","userSelected":true}},{"url":"text","valueString":"Asian"}]},{"url":"http://hl7.org/fhir/us/core/StructureDefinition/us-core-ethnicity","extension":[{"url":"ombCategory","valueCoding":{"system":"urn:oid:2.16.840.1.113883.6.238","code":"2186-5","display":"Not Hispanic or Latino","userSelected":true}},{"url":"text","valueString":"Not Hispanic or Latino"}]}],"identifier":[{"type":{"coding":[{"system":"http://terminology.hl7.org/CodeSystem/v2-0203","code":"MR"}]},"system":"https://bonnie-fhir.healthit.gov/","value":"617be46f1619a529957d62af"}],"name":[{"family":"DenExcl6Fail","given":["MedStartsAfterED"]}],"gender":"female","birthDate":"1984-12-02"},"request":{"method":"PUT","url":"Patient/afb2d04b-f766-465a-9215-79cb8dfafd73"}},{"fullUrl":"https://madie.cms.gov/Encounter/emergency-department-visit-62b0","resource":{"resourceType":"Encounter","id":"emergency-department-visit-62b0","meta":{"profile":["http://hl7.org/fhir/us/qicore/StructureDefinition/qicore-encounter"]},"status":"finished","class":{"system":"http://terminology.hl7.org/CodeSystem/v3-ActCode","code":"EMER","display":"emergency","userSelected":true},"type":[{"coding":[{"system":"http://snomed.info/sct","version":"2020-09","code":"4525004","display":"Emergency department patient visit (procedure)","userSelected":true}]}],"subject":{"reference":"Patient/afb2d04b-f766-465a-9215-79cb8dfafd73"},"period":{"start":"2025-10-09T08:05:00.000+00:00","end":"2025-10-10T07:15:00.000+00:00"},"reasonCode":[{"coding":[{"system":"http://hl7.org/fhir/sid/icd-10-cm","version":"2021","code":"I21.02","display":"ST elevation (STEMI) myocardial infarction involving left anterior descending coronary artery","userSelected":true}]}]},"request":{"method":"PUT","url":"Encounter/emergency-department-visit-62b0"}},{"fullUrl":"https://madie.cms.gov/MedicationRequest/anticoagulant-medications-oral-62b1","resource":{"resourceType":"MedicationRequest","id":"anticoagulant-medications-oral-62b1","meta":{"profile":["http://hl7.org/fhir/us/qicore/StructureDefinition/qicore-medicationrequest"]},"status":"active","intent":"order","category":[{"coding":[{"system":"http://terminology.hl7.org/CodeSystem/medicationrequest-category","code":"inpatient","display":"Inpatient","userSelected":true}]}],"medicationCodeableConcept":{"coding":[{"system":"http://www.nlm.nih.gov/research/umls/rxnorm","version":"2021-01","code":"1114202","display":"rivaroxaban 10 MG Oral Tablet [Xarelto]","userSelected":true}]},"subject":{"reference":"Patient/afb2d04b-f766-465a-9215-79cb8dfafd73"},"authoredOn":"2025-10-11T08:00:00.000+00:00","requester":{"reference":"Practitioner/practitioner-123456"}},"request":{"method":"PUT","url":"MedicationRequest/anticoagulant-medications-oral-62b1"}},{"fullUrl":"https://madie.cms.gov/Practitioner/practitioner-123456","resource":{"resourceType":"Practitioner","id":"practitioner-123456","meta":{"profile":["http://hl7.org/fhir/us/qicore/StructureDefinition/qicore-practitioner"]},"identifier":[{"system":"http://hl7.org/fhir/sid/us-npi","value":"123456"}],"name":[{"family":"Evil","prefix":["Dr"]}]},"request":{"method":"PUT","url":"Practitioner/practitioner-123456"}},{"fullUrl":"https://madie.cms.gov/MeasureReport/1261af7d-c002-48f1-abf1-aa45bec2873a","resource":{"resourceType":"MeasureReport","id":"1261af7d-c002-48f1-abf1-aa45bec2873a","meta":{"profile":["http://hl7.org/fhir/us/cqfmeasures/StructureDefinition/test-case-cqfm"]},"contained":[{"resourceType":"Parameters","id":"572beb63-481f-454d-8c30-0371cea0864e-parameters","parameter":[{"name":"subject","valueString":"afb2d04b-f766-465a-9215-79cb8dfafd73"}]}],"extension":[{"url":"http://hl7.org/fhir/us/cqfmeasures/StructureDefinition/cqfm-inputParameters","valueReference":{"reference":"#572beb63-481f-454d-8c30-0371cea0864e-parameters"}},{"url":"http://hl7.org/fhir/us/cqfmeasures/StructureDefinition/cqfm-testCaseDescription","valueMarkdown":"Patient has anticoagulant medication starts after ED"}],"modifierExtension":[{"url":"http://hl7.org/fhir/us/cqfmeasures/StructureDefinition/cqfm-isTestCase","valueBoolean":true}],"status":"complete","type":"individual","measure":"https://madie.cms.gov/Measure/AppropriateTreatmentforSTEMIFHIR","period":{"start":"2025-01-01","end":"2025-12-31"},"group":[{"population":[{"code":{"coding":[{"system":"http://terminology.hl7.org/CodeSystem/measure-population","code":"initial-population","display":"Initial Population"}]},"count":1},{"code":{"coding":[{"system":"http://terminology.hl7.org/CodeSystem/measure-population","code":"denominator","display":"Denominator"}]},"count":1},{"code":{"coding":[{"system":"http://terminology.hl7.org/CodeSystem/measure-population","code":"denominator-exclusion","display":"Denominator Exclusion"}]},"count":0},{"code":{"coding":[{"system":"http://terminology.hl7.org/CodeSystem/measure-population","code":"numerator","display":"Numerator"}]},"count":0},{"code":{"coding":[{"system":"http://terminology.hl7.org/CodeSystem/measure-population","code":"denominator-exception","display":"Denominator Exception"}]},"count":0}]}],"evaluatedResource":[{"reference":"Patient/afb2d04b-f766-465a-9215-79cb8dfafd73"},{"reference":"Encounter/emergency-department-visit-62b0"},{"reference":"MedicationRequest/anticoagulant-medications-oral-62b1"},{"reference":"Practitioner/practitioner-123456"}]},"request":{"method":"PUT","url":"MeasureReport/1261af7d-c002-48f1-abf1-aa45bec2873a"}}]}