{"resourceType":"Bundle","id":"tests-89073685-3807-41f5-bc32-2cf44c1b8227-bundle","type":"transaction","entry":[{"fullUrl":"https://madie.cms.gov/Patient/89073685-3807-41f5-bc32-2cf44c1b8227","resource":{"resourceType":"Patient","id":"89073685-3807-41f5-bc32-2cf44c1b8227","meta":{"profile":["http://hl7.org/fhir/us/qicore/StructureDefinition/qicore-patient"]},"extension":[{"url":"http://hl7.org/fhir/us/core/StructureDefinition/us-core-race","extension":[{"url":"ombCategory","valueCoding":{"system":"urn:oid:2.16.840.1.113883.6.238","code":"2028-9","display":"Asian"}},{"url":"text","valueString":"Asian"}]},{"url":"http://hl7.org/fhir/us/core/StructureDefinition/us-core-ethnicity","extension":[{"url":"ombCategory","valueCoding":{"system":"urn:oid:2.16.840.1.113883.6.238","code":"2135-2","display":"Hispanic or Latino"}},{"url":"text","valueString":"Hispanic or Latino"}]}],"identifier":[{"system":"http://hospital.smarthealthit.org","value":"999999995"}],"name":[{"family":"Bertha","given":["Betty"]}],"gender":"female","birthDate":"1959-12-31"},"request":{"method":"PUT","url":"Patient/89073685-3807-41f5-bc32-2cf44c1b8227"}},{"fullUrl":"https://madie.cms.gov/Encounter/Encounter-21","resource":{"resourceType":"Encounter","id":"97be9340-fe8d-4517-b175-482a855e004f","meta":{"profile":["http://hl7.org/fhir/us/qicore/StructureDefinition/qicore-encounter"]},"status":"finished","class":{"system":"http://terminology.hl7.org/CodeSystem/v3-ActCode","code":"AMB","display":"ambulatory"},"type":[{"coding":[{"system":"http://snomed.info/sct","code":"185463005","display":"Visit out of hours (procedure)"}]}],"subject":{"reference":"Patient/89073685-3807-41f5-bc32-2cf44c1b8227"},"period":{"start":"2025-01-01T00:00:00.000Z","end":"2025-01-01T00:00:00.000Z"}},"request":{"method":"PUT","url":"Encounter/97be9340-fe8d-4517-b175-482a855e004f"}},{"fullUrl":"https://madie.cms.gov/Condition/Condition-21","resource":{"resourceType":"Condition","id":"31a290ef-4ec6-4634-8401-9272a2c44114","meta":{"profile":["http://hl7.org/fhir/us/qicore/StructureDefinition/qicore-condition"]},"clinicalStatus":{"coding":[{"system":"http://terminology.hl7.org/CodeSystem/condition-clinical","code":"active"}]},"category":[{"coding":[{"system":"http://terminology.hl7.org/CodeSystem/condition-category","code":"problem-list-item","display":"Problem List Item"}]}],"code":{"coding":[{"system":"http://snomed.info/sct","code":"102781000119107","display":"Sensory neuropathy due to type 1 diabetes mellitus (disorder)"}]},"subject":{"reference":"Patient/89073685-3807-41f5-bc32-2cf44c1b8227"},"onsetDateTime":"2025-01-01T00:00:00.000Z"},"request":{"method":"PUT","url":"Condition/31a290ef-4ec6-4634-8401-9272a2c44114"}},{"fullUrl":"https://madie.cms.gov/Observation/Observation-21","resource":{"resourceType":"Observation","id":"a5018cb8-1cad-4fd2-802c-59d5682bb00a","meta":{"profile":["http://hl7.org/fhir/us/qicore/StructureDefinition/qicore-observation"]},"status":"final","category":[{"coding":[{"system":"http://terminology.hl7.org/CodeSystem/observation-category","code":"survey"}]}],"code":{"coding":[{"system":"http://loinc.org","code":"71802-3","display":"Housing status"}]},"subject":{"reference":"Patient/89073685-3807-41f5-bc32-2cf44c1b8227"},"effectivePeriod":{"start":"2026-01-01T00:00:00.000Z","end":"2026-01-01T00:00:00.000Z"},"valueCodeableConcept":{"coding":[{"system":"http://snomed.info/sct","code":"160734000","display":"Lives in a nursing home (finding)"}]}},"request":{"method":"PUT","url":"Observation/a5018cb8-1cad-4fd2-802c-59d5682bb00a"}},{"fullUrl":"https://madie.cms.gov/MeasureReport/5300a472-4c86-44df-9d1e-55f302fe3564","resource":{"resourceType":"MeasureReport","id":"5300a472-4c86-44df-9d1e-55f302fe3564","meta":{"profile":["http://hl7.org/fhir/us/cqfmeasures/StructureDefinition/test-case-cqfm"]},"contained":[{"resourceType":"Parameters","id":"5f6676a0-1ed1-41ec-8b7c-af653723eae0-parameters","parameter":[{"name":"subject","valueString":"89073685-3807-41f5-bc32-2cf44c1b8227"}]}],"extension":[{"url":"http://hl7.org/fhir/us/cqfmeasures/StructureDefinition/cqfm-inputParameters","valueReference":{"reference":"#5f6676a0-1ed1-41ec-8b7c-af653723eae0-parameters"}},{"url":"http://hl7.org/fhir/us/cqfmeasures/StructureDefinition/cqfm-testCaseDescription","valueMarkdown":"Patient 66yo w/ an Office Visit Encounter 1/1 of the MP, & Diabetes Condition ending 1/1 during the MP, & an Observation AIFrailty Living In Nursing Home that starts on 1/1 the year after the MP."}],"modifierExtension":[{"url":"http://hl7.org/fhir/us/cqfmeasures/StructureDefinition/cqfm-isTestCase","valueBoolean":true}],"status":"complete","type":"individual","measure":"https://madie.cms.gov/Measure/DiabetesEyeExamFHIR","period":{"start":"2025-01-01","end":"2025-12-31"},"group":[{"population":[{"code":{"coding":[{"system":"http://terminology.hl7.org/CodeSystem/measure-population","code":"initial-population","display":"Initial Population"}]},"count":1},{"code":{"coding":[{"system":"http://terminology.hl7.org/CodeSystem/measure-population","code":"denominator","display":"Denominator"}]},"count":1},{"code":{"coding":[{"system":"http://terminology.hl7.org/CodeSystem/measure-population","code":"denominator-exclusion","display":"Denominator Exclusion"}]},"count":0},{"code":{"coding":[{"system":"http://terminology.hl7.org/CodeSystem/measure-population","code":"numerator","display":"Numerator"}]},"count":0}]}]},"request":{"method":"PUT","url":"MeasureReport/5300a472-4c86-44df-9d1e-55f302fe3564"}}]}