{"resourceType":"Bundle","id":"tests-d8946843-06c7-4b82-992a-91a9c20ec7c0-bundle","type":"transaction","entry":[{"fullUrl":"https://madie.cms.gov/Patient/d8946843-06c7-4b82-992a-91a9c20ec7c0","resource":{"resourceType":"Patient","id":"d8946843-06c7-4b82-992a-91a9c20ec7c0","meta":{"profile":["http://hl7.org/fhir/us/qicore/StructureDefinition/qicore-patient"]},"extension":[{"url":"http://hl7.org/fhir/us/core/StructureDefinition/us-core-race","extension":[{"url":"ombCategory","valueCoding":{"system":"urn:oid:2.16.840.1.113883.6.238","code":"2028-9","display":"Asian"}},{"url":"text","valueString":"Asian"}]},{"url":"http://hl7.org/fhir/us/core/StructureDefinition/us-core-ethnicity","extension":[{"url":"ombCategory","valueCoding":{"system":"urn:oid:2.16.840.1.113883.6.238","code":"2135-2","display":"Hispanic or Latino"}},{"url":"text","valueString":"Hispanic or Latino"}]}],"identifier":[{"system":"http://hospital.smarthealthit.org","value":"999999995"}],"name":[{"family":"Bertha","given":["Betty"]}],"gender":"female","birthDate":"1959-12-31"},"request":{"method":"PUT","url":"Patient/d8946843-06c7-4b82-992a-91a9c20ec7c0"}},{"fullUrl":"https://madie.cms.gov/Encounter/Encounter-12","resource":{"resourceType":"Encounter","id":"4d8107a6-96a0-4081-ae3e-5ec9bd579154","meta":{"profile":["http://hl7.org/fhir/us/qicore/StructureDefinition/qicore-encounter"]},"status":"finished","class":{"system":"http://terminology.hl7.org/CodeSystem/v3-ActCode","code":"AMB","display":"ambulatory"},"type":[{"coding":[{"system":"http://snomed.info/sct","code":"185463005","display":"Visit out of hours (procedure)"}]}],"subject":{"reference":"Patient/d8946843-06c7-4b82-992a-91a9c20ec7c0"},"period":{"start":"2025-01-01T00:00:00.000Z","end":"2025-01-01T00:00:00.000Z"}},"request":{"method":"PUT","url":"Encounter/4d8107a6-96a0-4081-ae3e-5ec9bd579154"}},{"fullUrl":"https://madie.cms.gov/Condition/Condition-12","resource":{"resourceType":"Condition","id":"1971a9c2-0241-492f-b1a0-0599e7f7bc43","meta":{"profile":["http://hl7.org/fhir/us/qicore/StructureDefinition/qicore-condition"]},"clinicalStatus":{"coding":[{"system":"http://terminology.hl7.org/CodeSystem/condition-clinical","code":"active"}]},"category":[{"coding":[{"system":"http://terminology.hl7.org/CodeSystem/condition-category","code":"problem-list-item","display":"Problem List Item"}]}],"code":{"coding":[{"system":"http://snomed.info/sct","code":"102781000119107","display":"Sensory neuropathy due to type 1 diabetes mellitus (disorder)"}]},"subject":{"reference":"Patient/d8946843-06c7-4b82-992a-91a9c20ec7c0"},"onsetDateTime":"2025-01-01T00:00:00.000Z"},"request":{"method":"PUT","url":"Condition/1971a9c2-0241-492f-b1a0-0599e7f7bc43"}},{"fullUrl":"https://madie.cms.gov/Encounter/Encounter-12.1","resource":{"resourceType":"Encounter","id":"3b1b947d-b17c-4c59-9fd1-205f34482d52","meta":{"profile":["http://hl7.org/fhir/us/qicore/StructureDefinition/qicore-encounter"]},"status":"finished","class":{"system":"http://terminology.hl7.org/CodeSystem/v3-ActCode","code":"AMB","display":"ambulatory"},"type":[{"coding":[{"system":"http://snomed.info/sct","code":"10378005","display":"Hospital admission, emergency, from emergency room, accidental injury (procedure)"}]}],"subject":{"reference":"Patient/d8946843-06c7-4b82-992a-91a9c20ec7c0"},"period":{"start":"2025-12-31T23:59:59.000Z","end":"2025-12-31T23:59:59.000Z"},"diagnosis":[{"condition":{"reference":"Condition/12.1"}}]},"request":{"method":"PUT","url":"Encounter/3b1b947d-b17c-4c59-9fd1-205f34482d52"}},{"fullUrl":"https://madie.cms.gov/Condition/12.1","resource":{"resourceType":"Condition","id":"1a4c39d9-f15c-4fe2-8c21-571c16bfb19b","meta":{"profile":["http://hl7.org/fhir/us/qicore/StructureDefinition/qicore-condition"]},"clinicalStatus":{"coding":[{"system":"http://terminology.hl7.org/CodeSystem/condition-clinical","code":"active"}]},"category":[{"coding":[{"system":"http://terminology.hl7.org/CodeSystem/condition-category","code":"problem-list-item","display":"Problem List Item"}]}],"code":{"coding":[{"system":"http://snomed.info/sct","code":"100721000119109","display":"High grade astrocytoma of brain (disorder)"}]},"subject":{"reference":"Patient/d8946843-06c7-4b82-992a-91a9c20ec7c0"},"onsetDateTime":"2025-01-01T00:00:00.000Z"},"request":{"method":"PUT","url":"Condition/1a4c39d9-f15c-4fe2-8c21-571c16bfb19b"}},{"fullUrl":"https://madie.cms.gov/DeviceRequest/DeviceRequest-12","resource":{"resourceType":"DeviceRequest","id":"a642fc1a-75a4-4daf-b726-90681564aa77","meta":{"profile":["http://hl7.org/fhir/us/qicore/StructureDefinition/qicore-devicerequest"]},"modifierExtension":[{"url":"http://hl7.org/fhir/us/qicore/StructureDefinition/qicore-doNotPeform","valueBoolean":false}],"status":"completed","intent":"order","codeCodeableConcept":{"coding":[{"system":"http://snomed.info/sct","code":"183240000","display":"Self-propelled wheelchair (physical object)"}]},"subject":{"reference":"Patient/d8946843-06c7-4b82-992a-91a9c20ec7c0"},"authoredOn":"2025-01-01T00:00:00.000Z"},"request":{"method":"PUT","url":"DeviceRequest/a642fc1a-75a4-4daf-b726-90681564aa77"}},{"fullUrl":"https://madie.cms.gov/MeasureReport/7c2b0e38-19ff-4a24-88c2-66cd5330c9d1","resource":{"resourceType":"MeasureReport","id":"7c2b0e38-19ff-4a24-88c2-66cd5330c9d1","meta":{"profile":["http://hl7.org/fhir/us/cqfmeasures/StructureDefinition/test-case-cqfm"]},"contained":[{"resourceType":"Parameters","id":"48d4d46a-f3d0-4763-8745-92ebb17c0fdf-parameters","parameter":[{"name":"subject","valueString":"d8946843-06c7-4b82-992a-91a9c20ec7c0"}]}],"extension":[{"url":"http://hl7.org/fhir/us/cqfmeasures/StructureDefinition/cqfm-inputParameters","valueReference":{"reference":"#48d4d46a-f3d0-4763-8745-92ebb17c0fdf-parameters"}},{"url":"http://hl7.org/fhir/us/cqfmeasures/StructureDefinition/cqfm-testCaseDescription","valueMarkdown":"Patient 66yo w/ an Office Visit Encounter 1/1 of the MP, Diabetes Condition ending 1/1 during the MP, & an Advanced Illness & Frailty Encounter that starts on 12/31 of the MP."}],"modifierExtension":[{"url":"http://hl7.org/fhir/us/cqfmeasures/StructureDefinition/cqfm-isTestCase","valueBoolean":true}],"status":"complete","type":"individual","measure":"https://madie.cms.gov/Measure/DiabetesEyeExamFHIR","period":{"start":"2025-01-01","end":"2025-12-31"},"group":[{"population":[{"code":{"coding":[{"system":"http://terminology.hl7.org/CodeSystem/measure-population","code":"initial-population","display":"Initial Population"}]},"count":1},{"code":{"coding":[{"system":"http://terminology.hl7.org/CodeSystem/measure-population","code":"denominator","display":"Denominator"}]},"count":1},{"code":{"coding":[{"system":"http://terminology.hl7.org/CodeSystem/measure-population","code":"denominator-exclusion","display":"Denominator Exclusion"}]},"count":1},{"code":{"coding":[{"system":"http://terminology.hl7.org/CodeSystem/measure-population","code":"numerator","display":"Numerator"}]},"count":0}]}]},"request":{"method":"PUT","url":"MeasureReport/7c2b0e38-19ff-4a24-88c2-66cd5330c9d1"}}]}