{"resourceType":"Bundle","id":"tests-088f69b7-3d05-488a-b924-f9c210351e66-bundle","type":"transaction","entry":[{"fullUrl":"https://madie.cms.gov/Patient/088f69b7-3d05-488a-b924-f9c210351e66","resource":{"resourceType":"Patient","id":"088f69b7-3d05-488a-b924-f9c210351e66","meta":{"profile":["http://hl7.org/fhir/us/qicore/StructureDefinition/qicore-patient"]},"extension":[{"url":"http://hl7.org/fhir/us/core/StructureDefinition/us-core-race","extension":[{"url":"ombCategory","valueCoding":{"system":"urn:oid:2.16.840.1.113883.6.238","code":"2028-9","display":"Asian"}},{"url":"text","valueString":"Asian"}]},{"url":"http://hl7.org/fhir/us/core/StructureDefinition/us-core-ethnicity","extension":[{"url":"ombCategory","valueCoding":{"system":"urn:oid:2.16.840.1.113883.6.238","code":"2135-2","display":"Hispanic or Latino"}},{"url":"text","valueString":"Hispanic or Latino"}]}],"identifier":[{"system":"http://hospital.smarthealthit.org","value":"999999995"}],"name":[{"family":"Bertha","given":["Betty"]}],"gender":"female","birthDate":"2007-12-31"},"request":{"method":"PUT","url":"Patient/088f69b7-3d05-488a-b924-f9c210351e66"}},{"fullUrl":"https://madie.cms.gov/Encounter/Encounter-8","resource":{"resourceType":"Encounter","id":"Encounter-8","meta":{"profile":["http://hl7.org/fhir/us/qicore/StructureDefinition/qicore-encounter"]},"status":"finished","class":{"system":"http://terminology.hl7.org/CodeSystem/v3-ActCode","code":"AMB","display":"ambulatory"},"type":[{"coding":[{"system":"http://snomed.info/sct","code":"185463005","display":"Visit out of hours (procedure)"}]}],"subject":{"reference":"Patient/088f69b7-3d05-488a-b924-f9c210351e66"},"period":{"start":"2025-01-01T00:00:00.000Z","end":"2025-01-01T00:00:00.000Z"}},"request":{"method":"PUT","url":"Encounter/Encounter-8"}},{"fullUrl":"https://madie.cms.gov/Condition/Condition-8","resource":{"resourceType":"Condition","id":"Condition-8","meta":{"profile":["http://hl7.org/fhir/us/qicore/StructureDefinition/qicore-condition"]},"clinicalStatus":{"coding":[{"system":"http://terminology.hl7.org/CodeSystem/condition-clinical","code":"active"}]},"category":[{"coding":[{"system":"http://terminology.hl7.org/CodeSystem/condition-category","code":"problem-list-item","display":"Problem List Item"}]}],"code":{"coding":[{"system":"http://snomed.info/sct","code":"102781000119107","display":"Sensory neuropathy due to type 1 diabetes mellitus (disorder)"}]},"subject":{"reference":"Patient/088f69b7-3d05-488a-b924-f9c210351e66"},"onsetDateTime":"2026-01-01T00:00:00.000Z"},"request":{"method":"PUT","url":"Condition/Condition-8"}},{"fullUrl":"https://madie.cms.gov/MeasureReport/e3c0c5b2-765b-4fb5-9684-71d98e136b16","resource":{"resourceType":"MeasureReport","id":"e3c0c5b2-765b-4fb5-9684-71d98e136b16","meta":{"profile":["http://hl7.org/fhir/us/cqfmeasures/StructureDefinition/test-case-cqfm"]},"contained":[{"resourceType":"Parameters","id":"f7ae6cea-0cde-42b5-9674-2e25148b4323-parameters","parameter":[{"name":"subject","valueString":"088f69b7-3d05-488a-b924-f9c210351e66"}]}],"extension":[{"url":"http://hl7.org/fhir/us/cqfmeasures/StructureDefinition/cqfm-inputParameters","valueReference":{"reference":"#f7ae6cea-0cde-42b5-9674-2e25148b4323-parameters"}},{"url":"http://hl7.org/fhir/us/cqfmeasures/StructureDefinition/cqfm-testCaseDescription","valueMarkdown":"Patient 18yo w/ an Office Visit Encounter & Diabetes Condition ending 1/1 after the MP."}],"modifierExtension":[{"url":"http://hl7.org/fhir/us/cqfmeasures/StructureDefinition/cqfm-isTestCase","valueBoolean":true}],"status":"complete","type":"individual","measure":"https://madie.cms.gov/Measure/DiabetesEyeExamFHIR","period":{"start":"2025-01-01","end":"2025-12-31"},"group":[{"population":[{"code":{"coding":[{"system":"http://terminology.hl7.org/CodeSystem/measure-population","code":"initial-population","display":"Initial Population"}]},"count":0},{"code":{"coding":[{"system":"http://terminology.hl7.org/CodeSystem/measure-population","code":"denominator","display":"Denominator"}]},"count":0},{"code":{"coding":[{"system":"http://terminology.hl7.org/CodeSystem/measure-population","code":"denominator-exclusion","display":"Denominator Exclusion"}]},"count":0},{"code":{"coding":[{"system":"http://terminology.hl7.org/CodeSystem/measure-population","code":"numerator","display":"Numerator"}]},"count":0}]}],"evaluatedResource":[{"reference":"Patient/088f69b7-3d05-488a-b924-f9c210351e66"},{"reference":"Encounter/Encounter-8"},{"reference":"Condition/Condition-8"}]},"request":{"method":"PUT","url":"MeasureReport/e3c0c5b2-765b-4fb5-9684-71d98e136b16"}}]}