{
  "resourceType": "Bundle",
  "id": "610d828c37a47d6ac0116a12",
  "type": "transaction",
  "entry": [ {
    "fullUrl": "https://madie.cms.gov/Patient/645060d3-a2eb-4192-b959-ab0d9b1219fd",
    "resource": {
      "resourceType": "Patient",
      "id": "645060d3-a2eb-4192-b959-ab0d9b1219fd",
      "meta": {
        "profile": [ "http://hl7.org/fhir/us/qicore/StructureDefinition/qicore-patient" ]
      },
      "extension": [ {
        "url": "http://hl7.org/fhir/us/core/StructureDefinition/us-core-race",
        "extension": [ {
          "url": "ombCategory",
          "valueCoding": {
            "system": "urn:oid:2.16.840.1.113883.6.238",
            "code": "2054-5",
            "display": "Black or African American",
            "userSelected": true
          }
        }, {
          "url": "text",
          "valueString": "Black or African American"
        } ]
      }, {
        "url": "http://hl7.org/fhir/us/core/StructureDefinition/us-core-ethnicity",
        "extension": [ {
          "url": "ombCategory",
          "valueCoding": {
            "system": "urn:oid:2.16.840.1.113883.6.238",
            "code": "2186-5",
            "display": "Not Hispanic or Latino",
            "userSelected": true
          }
        }, {
          "url": "text",
          "valueString": "Not Hispanic or Latino"
        } ]
      } ],
      "identifier": [ {
        "type": {
          "coding": [ {
            "system": "http://terminology.hl7.org/CodeSystem/v2-0203",
            "code": "MR"
          } ]
        },
        "system": "https://goodhealth.com/",
        "value": "610d828c37a47d6ac0116a12"
      } ],
      "name": [ {
        "family": "DENEXCEPPass",
        "given": [ "AssessmentNotDonePatientReason" ]
      } ],
      "gender": "female",
      "birthDate": "1954-06-18"
    },
    "request": {
      "method": "POST",
      "url": "Patient/645060d3-a2eb-4192-b959-ab0d9b1219fd"
    }
  }, {
    "fullUrl": "https://madie.cms.gov/Encounter/30023001",
    "resource": {
      "resourceType": "Encounter",
      "id": "30023001",
      "meta": {
        "profile": [ "http://hl7.org/fhir/us/qicore/StructureDefinition/qicore-encounter" ]
      },
      "status": "finished",
      "class": {
        "system": "http://terminology.hl7.org/CodeSystem/v3-ActCode",
        "code": "AMB",
        "display": "ambulatory",
        "userSelected": true
      },
      "type": [ {
        "coding": [ {
          "system": "http://snomed.info/sct",
          "version": "2020-09",
          "code": "185460008",
          "display": "Home visit request by patient (procedure)",
          "userSelected": true
        } ]
      } ],
      "subject": {
        "reference": "Patient/645060d3-a2eb-4192-b959-ab0d9b1219fd"
      },
      "period": {
        "start": "2025-08-06T08:00:00.000+00:00",
        "end": "2025-08-06T09:15:00.000+00:00"
      }
    },
    "request": {
      "method": "POST",
      "url": "Encounter/30023001"
    }
  }, {
    "fullUrl": "https://madie.cms.gov/Condition/300230002",
    "resource": {
      "resourceType": "Condition",
      "id": "300230002",
      "meta": {
        "profile": [ "http://hl7.org/fhir/us/qicore/StructureDefinition/qicore-condition" ]
      },
      "clinicalStatus": {
        "coding": [ {
          "system": "http://terminology.hl7.org/CodeSystem/condition-clinical",
          "code": "active",
          "display": "active",
          "userSelected": true
        } ]
      },
      "category": [ {
        "coding": [ {
          "system": "http://terminology.hl7.org/CodeSystem/condition-clinical",
          "code": "active",
          "display": "active",
          "userSelected": true
        } ]
      } ],
      "code": {
        "coding": [ {
          "system": "http://snomed.info/sct",
          "version": "http://snomed.info/sct/731000124108/version/202303",
          "code": "10349009",
          "display": "Multi-infarct dementia with delirium (disorder)",
          "userSelected": true
        } ]
      },
      "subject": {
        "reference": "Patient/645060d3-a2eb-4192-b959-ab0d9b1219fd"
      },
      "onsetDateTime": "2023-05-06T08:00:00.000+00:00",
      "recordedDate": "2023-05-06T08:00:00.000+00:00"
    },
    "request": {
      "method": "POST",
      "url": "Condition/300230002"
    }
  }, {
    "fullUrl": "https://madie.cms.gov/Encounter/300230003",
    "resource": {
      "resourceType": "Encounter",
      "id": "300230003",
      "meta": {
        "profile": [ "http://hl7.org/fhir/us/qicore/StructureDefinition/qicore-encounter" ]
      },
      "status": "finished",
      "class": {
        "system": "http://terminology.hl7.org/CodeSystem/v3-ActCode",
        "code": "AMB",
        "display": "ambulatory",
        "userSelected": true
      },
      "type": [ {
        "coding": [ {
          "system": "http://snomed.info/sct",
          "version": "2020-09",
          "code": "185316007",
          "display": "Indirect encounter (procedure)",
          "userSelected": true
        } ]
      } ],
      "subject": {
        "reference": "Patient/645060d3-a2eb-4192-b959-ab0d9b1219fd"
      },
      "period": {
        "start": "2025-05-06T08:00:00.000+00:00",
        "end": "2025-05-06T08:15:00.000+00:00"
      }
    },
    "request": {
      "method": "POST",
      "url": "Encounter/300230003"
    }
  }, {
    "fullUrl": "https://madie.cms.gov/Procedure/300230004",
    "resource": {
      "resourceType": "Procedure",
      "id": "300230004",
      "meta": {
        "profile": [ "http://hl7.org/fhir/us/qicore/StructureDefinition/qicore-procedure" ]
      },
      "extension": [ {
        "url": "http://hl7.org/fhir/us/qicore/StructureDefinition/qicore-recorded",
        "valueDateTime": "2025-05-05T09:35:00-04:00"
      } ],
      "status": "completed",
      "category": {
        "coding": [ {
          "system": "http://loinc.org",
          "version": "2.73",
          "code": "58151-2",
          "display": "Prior assessment Brief Interview for Mental Status (BIMS) summary score [MDSv3]",
          "userSelected": true
        } ]
      },
      "code": {
        "coding": [ {
          "system": "http://snomed.info/sct",
          "version": "http://snomed.info/sct/731000124108/version/202303",
          "code": "113024001",
          "display": "Assessment and interpretation of higher cerebral function, cognitive testing (procedure)",
          "userSelected": true
        } ]
      },
      "subject": {
        "reference": "Patient/645060d3-a2eb-4192-b959-ab0d9b1219fd"
      },
      "encounter": {
        "reference": "Encounter/home-healthcare-services-8b61"
      },
      "performedDateTime": "2025-05-06T08:00:00.000+00:00"
    },
    "request": {
      "method": "POST",
      "url": "Procedure/300230004"
    }
  }, {
    "fullUrl": "https://madie.cms.gov/Observation/300230010",
    "resource": {
      "resourceType": "Observation",
      "id": "300230010",
      "meta": {
        "profile": [ "http://hl7.org/fhir/us/qicore/StructureDefinition/qicore-observationnotdone" ]
      },
      "extension": [ {
        "url": "http://hl7.org/fhir/us/qicore/StructureDefinition/qicore-notDoneReason",
        "valueCodeableConcept": {
          "coding": [ {
            "system": "http://snomed.info/sct",
            "version": "http://snomed.info/sct/731000124108/version/20230301",
            "code": "275936005",
            "display": "Patient noncompliance - general (situation)"
          } ]
        }
      } ],
      "status": "cancelled",
      "category": [ {
        "coding": [ {
          "system": "http://snomed.info/sct",
          "version": "http://snomed.info/sct/731000124108/version/202303",
          "code": "113024001",
          "display": "Assessment and interpretation of higher cerebral function, cognitive testing (procedure)",
          "userSelected": true
        } ]
      } ],
      "code": {
        "coding": [ {
          "system": "http://snomed.info/sct",
          "version": "http://snomed.info/sct/731000124108/version/202303",
          "code": "113024001",
          "display": "Assessment and interpretation of higher cerebral function, cognitive testing (procedure)"
        } ]
      },
      "subject": {
        "reference": "Patient/645060d3-a2eb-4192-b959-ab0d9b1219fd"
      },
      "effectiveDateTime": "2025-05-06T08:00:00.000+00:00",
      "issued": "2025-08-06T08:00:00.000+00:00"
    },
    "request": {
      "method": "POST",
      "url": "Observation/300230010"
    }
  }, {
    "fullUrl": "https://madie.cms.gov/MeasureReport/b6dc3e1e-8d3b-4a4f-9ef8-3bd7efb2cd71",
    "resource": {
      "resourceType": "MeasureReport",
      "id": "b6dc3e1e-8d3b-4a4f-9ef8-3bd7efb2cd71",
      "meta": {
        "profile": [ "http://hl7.org/fhir/us/cqfmeasures/StructureDefinition/test-case-cqfm" ]
      },
      "contained": [ {
        "resourceType": "Parameters",
        "id": "2c418e52-6a98-4e48-97dc-5348d4643051-parameters",
        "parameter": [ {
          "name": "subject",
          "valueString": "645060d3-a2eb-4192-b959-ab0d9b1219fd"
        } ]
      } ],
      "extension": [ {
        "url": "http://hl7.org/fhir/us/cqfmeasures/StructureDefinition/cqfm-inputParameters",
        "valueReference": {
          "reference": "#2c418e52-6a98-4e48-97dc-5348d4643051-parameters"
        }
      }, {
        "url": "http://hl7.org/fhir/us/cqfmeasures/StructureDefinition/cqfm-testCaseDescription",
        "valueMarkdown": "Meets exception for Assessment not performed d/t documented patient refusal"
      } ],
      "modifierExtension": [ {
        "url": "http://hl7.org/fhir/us/cqfmeasures/StructureDefinition/cqfm-isTestCase",
        "valueBoolean": true
      } ],
      "status": "complete",
      "type": "individual",
      "measure": "https://madie.cms.gov/Measure/DementiaCognitiveAssessmentFHIR",
      "period": {
        "start": "2025-01-01",
        "end": "2025-12-31"
      },
      "group": [ {
        "population": [ {
          "code": {
            "coding": [ {
              "system": "http://terminology.hl7.org/CodeSystem/measure-population",
              "code": "initial-population",
              "display": "Initial Population"
            } ]
          },
          "count": 1
        }, {
          "code": {
            "coding": [ {
              "system": "http://terminology.hl7.org/CodeSystem/measure-population",
              "code": "denominator",
              "display": "Denominator"
            } ]
          },
          "count": 1
        }, {
          "code": {
            "coding": [ {
              "system": "http://terminology.hl7.org/CodeSystem/measure-population",
              "code": "numerator",
              "display": "Numerator"
            } ]
          },
          "count": 0
        }, {
          "code": {
            "coding": [ {
              "system": "http://terminology.hl7.org/CodeSystem/measure-population",
              "code": "denominator-exception",
              "display": "Denominator Exception"
            } ]
          },
          "count": 1
        } ]
      } ],
      "evaluatedResource": [ {
        "reference": "Patient/645060d3-a2eb-4192-b959-ab0d9b1219fd"
      }, {
        "reference": "Encounter/30023001"
      }, {
        "reference": "Condition/300230002"
      }, {
        "reference": "Encounter/300230003"
      }, {
        "reference": "Procedure/300230004"
      }, {
        "reference": "Observation/300230010"
      } ]
    },
    "request": {
      "method": "POST",
      "url": "MeasureReport/b6dc3e1e-8d3b-4a4f-9ef8-3bd7efb2cd71"
    }
  } ]
}