{"resourceType":"Bundle","id":"tests-b85c0ae2-2a8c-4c27-9a31-efc62576b203-bundle","type":"transaction","entry":[{"fullUrl":"https://madie.cms.gov/Patient/b85c0ae2-2a8c-4c27-9a31-efc62576b203","resource":{"resourceType":"Patient","id":"b85c0ae2-2a8c-4c27-9a31-efc62576b203","meta":{"profile":["http://hl7.org/fhir/us/qicore/StructureDefinition/qicore-patient"]},"text":{"status":"generated","div":"<div xmlns=\"http://www.w3.org/1999/xhtml\"><div class=\"hapiHeaderText\">Turns 18 day of Encounter <b>DENEXPass </b></div><table class=\"hapiPropertyTable\"><tbody><tr><td>Identifier</td><td>f0eda1c9668fdacdcad3378589bf6e0a71e7dec1618f14fca4d442ec96e402b1</td></tr><tr><td>Date of birth</td><td><span>29 September 2006</span></td></tr></tbody></table></div>"},"extension":[{"url":"http://hl7.org/fhir/us/core/StructureDefinition/us-core-race","extension":[{"url":"ombCategory","valueCoding":{"system":"urn:oid:2.16.840.1.113883.6.238","code":"1002-5","display":"American Indian or Alaska Native","userSelected":true}},{"url":"text","valueString":"American Indian or Alaska Native"}]},{"url":"http://hl7.org/fhir/us/core/StructureDefinition/us-core-ethnicity","extension":[{"url":"ombCategory","valueCoding":{"system":"urn:oid:2.16.840.1.113883.6.238","code":"2135-2","display":"Hispanic or Latino","userSelected":true}},{"url":"text","valueString":"Hispanic or Latino"}]}],"identifier":[{"type":{"coding":[{"system":"http://terminology.hl7.org/CodeSystem/v2-0203","code":"MR"}]},"system":"http://bonnie-fhir.healthit.gov/","value":"DENEXPass-HighRiskProc"}],"active":true,"name":[{"use":"usual","family":"DENEXPass","given":["HighRiskDxPOA"]}],"gender":"male","birthDate":"1982-10-10"},"request":{"method":"PUT","url":"Patient/b85c0ae2-2a8c-4c27-9a31-efc62576b203"}},{"fullUrl":"https://madie.cms.gov/Encounter/DENEXPass-HighRiskProc-01","resource":{"resourceType":"Encounter","id":"5f4b0978-ef06-44cc-852d-220091960bbc","meta":{"profile":["http://hl7.org/fhir/us/qicore/StructureDefinition/qicore-encounter"]},"status":"finished","class":{"system":"http://terminology.hl7.org/CodeSystem/v3-ActCode","code":"IMP","display":"inpatient encounter"},"type":[{"coding":[{"system":"http://snomed.info/sct","code":"183452005","display":"Emergency hospital admission (procedure)"}]}],"subject":{"reference":"Patient/b85c0ae2-2a8c-4c27-9a31-efc62576b203"},"period":{"start":"2025-09-29T08:00:00.000Z","end":"2025-10-03T20:00:00.000Z"}},"request":{"method":"PUT","url":"Encounter/5f4b0978-ef06-44cc-852d-220091960bbc"}},{"fullUrl":"https://madie.cms.gov/Procedure/DENEXPass-HighRiskProc-11","resource":{"resourceType":"Procedure","id":"27121f1a-edb0-4b2d-bcd9-050dbc678b64","meta":{"profile":["http://hl7.org/fhir/us/qicore/StructureDefinition/qicore-procedure"]},"extension":[{"url":"http://hl7.org/fhir/us/qicore/StructureDefinition/qicore-recorded","valueDateTime":"2025-09-29T09:00:00.000Z"}],"status":"completed","code":{"coding":[{"system":"http://www.cms.gov/Medicare/Coding/ICD10","code":"02LW3DJ","display":"Occlusion of Thoracic Aorta, Descending with Intraluminal Device, Temporary, Percutaneous Approach"}],"text":"Occlusion of Thoracic Aorta, Descending with Intraluminal Device, Temporary, Percutaneous Approach"},"subject":{"reference":"Patient/b85c0ae2-2a8c-4c27-9a31-efc62576b203"},"encounter":{"reference":"Encounter/DENEXPass-HighRiskProc-01"},"performedPeriod":{"start":"2025-09-29T09:00:00.000Z","end":"2025-09-29T09:30:00.000Z"}},"request":{"method":"PUT","url":"Procedure/27121f1a-edb0-4b2d-bcd9-050dbc678b64"}},{"fullUrl":"https://madie.cms.gov/Observation/DENEXPass-HighRiskProc-17","resource":{"resourceType":"Observation","id":"a54faf1e-0e49-4ce7-a69d-f203c86be76f","meta":{"profile":["http://hl7.org/fhir/us/qicore/StructureDefinition/qicore-observation"]},"status":"final","category":[{"coding":[{"system":"http://terminology.hl7.org/CodeSystem/observation-category","code":"laboratory","display":"Laboratory"}]}],"code":{"coding":[{"system":"http://loinc.org","version":"2.72","code":"2160-0","display":"Creatinine [Mass/volume] in Serum or Plasma","userSelected":true}]},"subject":{"reference":"Patient/b85c0ae2-2a8c-4c27-9a31-efc62576b203"},"effectiveDateTime":"2025-10-01T08:01:00+00:00","issued":"2025-10-01T08:31:00+00:00","valueQuantity":{"value":0.9,"unit":"mg/dL","system":"http://unitsofmeasure.org","code":"mg/dL"}},"request":{"method":"PUT","url":"Observation/a54faf1e-0e49-4ce7-a69d-f203c86be76f"}},{"fullUrl":"https://madie.cms.gov/Observation/DENEXPass-HighRiskProc-15","resource":{"resourceType":"Observation","id":"8fbed8ce-c22d-480b-a50e-470ed0f00cee","meta":{"profile":["http://hl7.org/fhir/us/qicore/StructureDefinition/qicore-observation"]},"status":"final","category":[{"coding":[{"system":"http://terminology.hl7.org/CodeSystem/observation-category","code":"laboratory","display":"Laboratory"}]}],"code":{"coding":[{"system":"http://loinc.org","code":"2160-0","display":"Creatinine [Mass/volume] in Serum or Plasma"}]},"subject":{"reference":"Patient/b85c0ae2-2a8c-4c27-9a31-efc62576b203"},"effectiveDateTime":"2025-09-29T09:00:00+00:00","issued":"2025-09-29T09:30:00+00:00","valueQuantity":{"value":0.9,"unit":"mg/dL","system":"http://unitsofmeasure.org","code":"mg/dL"}},"request":{"method":"PUT","url":"Observation/8fbed8ce-c22d-480b-a50e-470ed0f00cee"}},{"fullUrl":"https://madie.cms.gov/Observation/DENEXPass-HighRiskProc-16","resource":{"resourceType":"Observation","id":"69e0e4d7-deb1-40d1-af09-c79eeb43773a","meta":{"profile":["http://hl7.org/fhir/us/qicore/StructureDefinition/qicore-observation"]},"status":"final","category":[{"coding":[{"system":"http://terminology.hl7.org/CodeSystem/observation-category","code":"laboratory","display":"Laboratory"}]}],"code":{"coding":[{"system":"http://loinc.org","version":"2.72","code":"2160-0","display":"Creatinine [Mass/volume] in Serum or Plasma","userSelected":true}]},"subject":{"reference":"Patient/b85c0ae2-2a8c-4c27-9a31-efc62576b203"},"effectiveDateTime":"2025-09-30T07:35:00+00:00","issued":"2025-09-30T08:00:00+00:00","valueQuantity":{"value":0.9,"unit":"mg/dL","system":"http://unitsofmeasure.org","code":"mg/dL"}},"request":{"method":"PUT","url":"Observation/69e0e4d7-deb1-40d1-af09-c79eeb43773a"}},{"fullUrl":"https://madie.cms.gov/Coverage/DENEXPass-HighRiskProc-61","resource":{"resourceType":"Coverage","id":"2fe02813-26e2-41a4-ad28-206c803dff33","meta":{"profile":["http://hl7.org/fhir/us/qicore/StructureDefinition/qicore-coverage"]},"status":"active","type":{"coding":[{"system":"https://nahdo.org/sopt","version":"9.2","code":"211","display":"Medicaid HMO"}]},"beneficiary":{"reference":"Patient/b85c0ae2-2a8c-4c27-9a31-efc62576b203"},"period":{"start":"2023-12-01T00:00:00+00:00"},"payor":[{"reference":"Organization/41c75c00-82d9-4ab2-98f6-cfaf7fc3381d"}]},"request":{"method":"PUT","url":"Coverage/2fe02813-26e2-41a4-ad28-206c803dff33"}},{"fullUrl":"https://madie.cms.gov/Organization/DENEXPass-HighRiskProc-98","resource":{"resourceType":"Organization","id":"41c75c00-82d9-4ab2-98f6-cfaf7fc3381d","meta":{"profile":["http://hl7.org/fhir/us/qicore/StructureDefinition/qicore-organization"]},"identifier":[{"use":"temp","system":"urn:oid:2.16.840.1.113883.4.4","value":"21-3259825"}],"active":true,"type":[{"coding":[{"system":"http://terminology.hl7.org/CodeSystem/organization-type","code":"pay","display":"Payer"}]}],"name":"Blue Cross Blue Shield of Texas","telecom":[{"system":"phone","value":"(+1) 972-766-6900"}],"address":[{"use":"billing","type":"postal","line":["P.O. Box 660044"],"city":"Dallas","state":"TX","postalCode":"75266-0044","country":"USA"}]},"request":{"method":"PUT","url":"Organization/41c75c00-82d9-4ab2-98f6-cfaf7fc3381d"}},{"fullUrl":"https://madie.cms.gov/MeasureReport/49cc575b-d6b1-4515-9474-0d6f837ce4f8","resource":{"resourceType":"MeasureReport","id":"49cc575b-d6b1-4515-9474-0d6f837ce4f8","meta":{"profile":["http://hl7.org/fhir/us/cqfmeasures/StructureDefinition/test-case-cqfm"]},"contained":[{"resourceType":"Parameters","id":"df947860-7441-4474-bff6-e4863c0b8546-parameters","parameter":[{"name":"subject","valueString":"b85c0ae2-2a8c-4c27-9a31-efc62576b203"}]}],"extension":[{"url":"http://hl7.org/fhir/us/cqfmeasures/StructureDefinition/cqfm-inputParameters","valueReference":{"reference":"#df947860-7441-4474-bff6-e4863c0b8546-parameters"}},{"url":"http://hl7.org/fhir/us/cqfmeasures/StructureDefinition/cqfm-testCaseDescription","valueMarkdown":"DENEXPass-HighRiskProc 02LW3DJ Occlusion of Thoracic Aorta, Descending with Intraluminal Device, Temporary, Percutaneous Approach"}],"modifierExtension":[{"url":"http://hl7.org/fhir/us/cqfmeasures/StructureDefinition/cqfm-isTestCase","valueBoolean":true}],"status":"complete","type":"individual","measure":"https://madie.cms.gov/Measure/HospitalHarmAcuteKidneyInjuryFHIR","period":{"start":"2025-01-01","end":"2025-12-31"},"group":[{"population":[{"code":{"coding":[{"system":"http://terminology.hl7.org/CodeSystem/measure-population","code":"initial-population","display":"Initial Population"}]},"count":1},{"code":{"coding":[{"system":"http://terminology.hl7.org/CodeSystem/measure-population","code":"denominator","display":"Denominator"}]},"count":1},{"code":{"coding":[{"system":"http://terminology.hl7.org/CodeSystem/measure-population","code":"denominator-exclusion","display":"Denominator Exclusion"}]},"count":1},{"code":{"coding":[{"system":"http://terminology.hl7.org/CodeSystem/measure-population","code":"numerator","display":"Numerator"}]},"count":0}]}]},"request":{"method":"PUT","url":"MeasureReport/49cc575b-d6b1-4515-9474-0d6f837ce4f8"}}]}