{"resourceType":"Bundle","id":"tests-af04cd06-b045-4d23-b489-8c3b41c81ada-bundle","type":"transaction","entry":[{"fullUrl":"https://madie.cms.gov/Patient/af04cd06-b045-4d23-b489-8c3b41c81ada","resource":{"resourceType":"Patient","id":"af04cd06-b045-4d23-b489-8c3b41c81ada","meta":{"profile":["http://hl7.org/fhir/us/qicore/StructureDefinition/qicore-patient"]},"extension":[{"url":"http://hl7.org/fhir/us/core/StructureDefinition/us-core-race","extension":[{"url":"ombCategory","valueCoding":{"system":"urn:oid:2.16.840.1.113883.6.238","code":"2028-9","display":"Asian"}},{"url":"text","valueString":"Asian"}]},{"url":"http://hl7.org/fhir/us/core/StructureDefinition/us-core-ethnicity","extension":[{"url":"ombCategory","valueCoding":{"system":"urn:oid:2.16.840.1.113883.6.238","code":"2135-2","display":"Hispanic or Latino"}},{"url":"text","valueString":"Hispanic or Latino"}]}],"identifier":[{"system":"http://hospital.smarthealthit.org","value":"999999995"}],"name":[{"family":"Bertha","given":["Betty"]}],"gender":"female","birthDate":"1975-01-01"},"request":{"method":"PUT","url":"Patient/af04cd06-b045-4d23-b489-8c3b41c81ada"}},{"fullUrl":"https://madie.cms.gov/Encounter/Encounter-24","resource":{"resourceType":"Encounter","id":"Encounter-24","meta":{"profile":["http://hl7.org/fhir/us/qicore/StructureDefinition/qicore-encounter"]},"status":"finished","class":{"system":"http://terminology.hl7.org/CodeSystem/v3-ActCode","code":"AMB","display":"ambulatory"},"type":[{"coding":[{"system":"http://snomed.info/sct","code":"185317003","display":"Telephone encounter (procedure)"}]}],"subject":{"reference":"Patient/af04cd06-b045-4d23-b489-8c3b41c81ada"},"period":{"start":"2025-01-02T00:00:00.000Z","end":"2025-01-02T01:15:00.000Z"}},"request":{"method":"PUT","url":"Encounter/Encounter-24"}},{"fullUrl":"https://madie.cms.gov/Procedure/Procedure-24","resource":{"resourceType":"Procedure","id":"Procedure-24","meta":{"profile":["http://hl7.org/fhir/us/qicore/StructureDefinition/qicore-procedure"]},"extension":[{"url":"http://hl7.org/fhir/us/qicore/StructureDefinition/qicore-recorded","valueDateTime":"2026-01-01T00:00:00.000Z"}],"status":"completed","code":{"coding":[{"system":"http://snomed.info/sct","code":"302376006","display":"Right oophorectomy (procedure)"}]},"subject":{"reference":"Patient/af04cd06-b045-4d23-b489-8c3b41c81ada"},"performedPeriod":{"start":"2026-01-01T00:00:00.000Z","end":"2026-01-01T23:59:00.000Z"}},"request":{"method":"PUT","url":"Procedure/Procedure-24"}},{"fullUrl":"https://madie.cms.gov/MeasureReport/2ba1ebb6-5b14-4394-8093-533009913f67","resource":{"resourceType":"MeasureReport","id":"2ba1ebb6-5b14-4394-8093-533009913f67","meta":{"profile":["http://hl7.org/fhir/us/cqfmeasures/StructureDefinition/test-case-cqfm"]},"contained":[{"resourceType":"Parameters","id":"f97b41ae-e094-4d08-adde-461751676525-parameters","parameter":[{"name":"subject","valueString":"af04cd06-b045-4d23-b489-8c3b41c81ada"}]}],"extension":[{"url":"http://hl7.org/fhir/us/cqfmeasures/StructureDefinition/cqfm-inputParameters","valueReference":{"reference":"#f97b41ae-e094-4d08-adde-461751676525-parameters"}},{"url":"http://hl7.org/fhir/us/cqfmeasures/StructureDefinition/cqfm-testCaseDescription","valueMarkdown":"Right Oophorectomy in patients history after the MP"}],"modifierExtension":[{"url":"http://hl7.org/fhir/us/cqfmeasures/StructureDefinition/cqfm-isTestCase","valueBoolean":true}],"status":"complete","type":"individual","measure":"https://madie.cms.gov/Measure/AppropriateDXAScansForWomenUnder65FHIR","period":{"start":"2025-01-01","end":"2025-12-31"},"group":[{"population":[{"code":{"coding":[{"system":"http://terminology.hl7.org/CodeSystem/measure-population","code":"initial-population","display":"Initial Population"}]},"count":1},{"code":{"coding":[{"system":"http://terminology.hl7.org/CodeSystem/measure-population","code":"denominator","display":"Denominator"}]},"count":1},{"code":{"coding":[{"system":"http://terminology.hl7.org/CodeSystem/measure-population","code":"denominator-exclusion","display":"Denominator Exclusion"}]},"count":0},{"code":{"coding":[{"system":"http://terminology.hl7.org/CodeSystem/measure-population","code":"numerator","display":"Numerator"}]},"count":0},{"code":{"coding":[{"system":"http://terminology.hl7.org/CodeSystem/measure-population","code":"numerator-exclusion","display":"Numerator Exclusion"}]},"count":0}]}],"evaluatedResource":[{"reference":"Patient/af04cd06-b045-4d23-b489-8c3b41c81ada"},{"reference":"Encounter/Encounter-24"},{"reference":"Procedure/Procedure-24"}]},"request":{"method":"PUT","url":"MeasureReport/2ba1ebb6-5b14-4394-8093-533009913f67"}}]}