{"resourceType":"Bundle","id":"tests-52e1963a-b73b-49c8-853b-2eaac1803db1-bundle","type":"transaction","entry":[{"fullUrl":"https://madie.cms.gov/Patient/52e1963a-b73b-49c8-853b-2eaac1803db1","resource":{"resourceType":"Patient","id":"52e1963a-b73b-49c8-853b-2eaac1803db1","meta":{"profile":["http://hl7.org/fhir/us/qicore/StructureDefinition/qicore-patient"]},"extension":[{"url":"http://hl7.org/fhir/us/core/StructureDefinition/us-core-race","extension":[{"url":"ombCategory","valueCoding":{"system":"urn:oid:2.16.840.1.113883.6.238","code":"2028-9","display":"Asian"}},{"url":"text","valueString":"Asian"}]},{"url":"http://hl7.org/fhir/us/core/StructureDefinition/us-core-ethnicity","extension":[{"url":"ombCategory","valueCoding":{"system":"urn:oid:2.16.840.1.113883.6.238","code":"2135-2","display":"Hispanic or Latino"}},{"url":"text","valueString":"Hispanic or Latino"}]}],"identifier":[{"system":"http://hospital.smarthealthit.org","value":"999999995"}],"name":[{"family":"Bertha","given":["Betty"]}],"gender":"female","birthDate":"1975-01-01"},"request":{"method":"PUT","url":"Patient/52e1963a-b73b-49c8-853b-2eaac1803db1"}},{"fullUrl":"https://madie.cms.gov/Encounter/Encounter-22","resource":{"resourceType":"Encounter","id":"Encounter-22","meta":{"profile":["http://hl7.org/fhir/us/qicore/StructureDefinition/qicore-encounter"]},"status":"finished","class":{"system":"http://terminology.hl7.org/CodeSystem/v3-ActCode","code":"AMB","display":"ambulatory"},"type":[{"coding":[{"system":"http://snomed.info/sct","code":"185317003","display":"Telephone encounter (procedure)"}]}],"subject":{"reference":"Patient/52e1963a-b73b-49c8-853b-2eaac1803db1"},"period":{"start":"2025-01-02T00:00:00.000Z","end":"2025-01-02T01:15:00.000Z"}},"request":{"method":"PUT","url":"Encounter/Encounter-22"}},{"fullUrl":"https://madie.cms.gov/Procedure/Procedure-22","resource":{"resourceType":"Procedure","id":"Procedure-22","meta":{"profile":["http://hl7.org/fhir/us/qicore/StructureDefinition/qicore-procedure"]},"extension":[{"url":"http://hl7.org/fhir/us/qicore/StructureDefinition/qicore-recorded","valueDateTime":"2026-01-01T00:00:00.000Z"}],"status":"completed","code":{"coding":[{"system":"http://snomed.info/sct","code":"29827000","display":"Excision of bilateral fallopian tubes and ovaries (procedure)"}]},"subject":{"reference":"Patient/52e1963a-b73b-49c8-853b-2eaac1803db1"},"performedPeriod":{"start":"2026-01-01T00:00:00.000Z","end":"2026-01-01T23:59:00.000Z"}},"request":{"method":"PUT","url":"Procedure/Procedure-22"}},{"fullUrl":"https://madie.cms.gov/MeasureReport/8633d999-4c18-44eb-90fd-d33cf2b921f9","resource":{"resourceType":"MeasureReport","id":"8633d999-4c18-44eb-90fd-d33cf2b921f9","meta":{"profile":["http://hl7.org/fhir/us/cqfmeasures/StructureDefinition/test-case-cqfm"]},"contained":[{"resourceType":"Parameters","id":"aebd4536-1277-4763-a8d4-0c452b948023-parameters","parameter":[{"name":"subject","valueString":"52e1963a-b73b-49c8-853b-2eaac1803db1"}]}],"extension":[{"url":"http://hl7.org/fhir/us/cqfmeasures/StructureDefinition/cqfm-inputParameters","valueReference":{"reference":"#aebd4536-1277-4763-a8d4-0c452b948023-parameters"}},{"url":"http://hl7.org/fhir/us/cqfmeasures/StructureDefinition/cqfm-testCaseDescription","valueMarkdown":"Bilateral Oophorectomy procedure in patient history after the MP"}],"modifierExtension":[{"url":"http://hl7.org/fhir/us/cqfmeasures/StructureDefinition/cqfm-isTestCase","valueBoolean":true}],"status":"complete","type":"individual","measure":"https://madie.cms.gov/Measure/AppropriateDXAScansForWomenUnder65FHIR","period":{"start":"2025-01-01","end":"2025-12-31"},"group":[{"population":[{"code":{"coding":[{"system":"http://terminology.hl7.org/CodeSystem/measure-population","code":"initial-population","display":"Initial Population"}]},"count":1},{"code":{"coding":[{"system":"http://terminology.hl7.org/CodeSystem/measure-population","code":"denominator","display":"Denominator"}]},"count":1},{"code":{"coding":[{"system":"http://terminology.hl7.org/CodeSystem/measure-population","code":"denominator-exclusion","display":"Denominator Exclusion"}]},"count":0},{"code":{"coding":[{"system":"http://terminology.hl7.org/CodeSystem/measure-population","code":"numerator","display":"Numerator"}]},"count":0},{"code":{"coding":[{"system":"http://terminology.hl7.org/CodeSystem/measure-population","code":"numerator-exclusion","display":"Numerator Exclusion"}]},"count":0}]}],"evaluatedResource":[{"reference":"Patient/52e1963a-b73b-49c8-853b-2eaac1803db1"},{"reference":"Encounter/Encounter-22"},{"reference":"Procedure/Procedure-22"}]},"request":{"method":"PUT","url":"MeasureReport/8633d999-4c18-44eb-90fd-d33cf2b921f9"}}]}