{"resourceType":"Bundle","id":"tests-a0dde151-99b6-4041-b8b5-680c29dcbea8-bundle","type":"transaction","entry":[{"fullUrl":"https://madie.cms.gov/Patient/a0dde151-99b6-4041-b8b5-680c29dcbea8","resource":{"resourceType":"Patient","id":"a0dde151-99b6-4041-b8b5-680c29dcbea8","meta":{"profile":["http://hl7.org/fhir/us/qicore/StructureDefinition/qicore-patient"]},"extension":[{"url":"http://hl7.org/fhir/us/core/StructureDefinition/us-core-race","extension":[{"url":"ombCategory","valueCoding":{"system":"urn:oid:2.16.840.1.113883.6.238","code":"2028-9","display":"Asian"}},{"url":"text","valueString":"Asian"}]},{"url":"http://hl7.org/fhir/us/core/StructureDefinition/us-core-ethnicity","extension":[{"url":"ombCategory","valueCoding":{"system":"urn:oid:2.16.840.1.113883.6.238","code":"2135-2","display":"Hispanic or Latino"}},{"url":"text","valueString":"Hispanic or Latino"}]}],"identifier":[{"system":"http://hospital.smarthealthit.org","value":"999999995"}],"name":[{"family":"Bertha","given":["Betty"]}],"gender":"female","birthDate":"1975-01-01"},"request":{"method":"PUT","url":"Patient/a0dde151-99b6-4041-b8b5-680c29dcbea8"}},{"fullUrl":"https://madie.cms.gov/Encounter/Encounter-13","resource":{"resourceType":"Encounter","id":"Encounter-13","meta":{"profile":["http://hl7.org/fhir/us/qicore/StructureDefinition/qicore-encounter"]},"status":"finished","class":{"system":"http://terminology.hl7.org/CodeSystem/v3-ActCode","code":"AMB","display":"ambulatory"},"type":[{"coding":[{"system":"http://snomed.info/sct","code":"185317003","display":"Telephone encounter (procedure)"}]}],"subject":{"reference":"Patient/a0dde151-99b6-4041-b8b5-680c29dcbea8"},"period":{"start":"2025-01-02T00:00:00.000Z","end":"2025-01-02T01:15:00.000Z"}},"request":{"method":"PUT","url":"Encounter/Encounter-13"}},{"fullUrl":"https://madie.cms.gov/MedicationRequest/MedicationRequest-13","resource":{"resourceType":"MedicationRequest","id":"MedicationRequest-13","meta":{"profile":["http://hl7.org/fhir/us/qicore/StructureDefinition/qicore-medicationrequest"]},"status":"active","intent":"order","category":[{"coding":[{"system":"http://terminology.hl7.org/CodeSystem/medicationrequest-category","code":"discharge","display":"Discharge"}]}],"medicationCodeableConcept":{"coding":[{"system":"http://www.nlm.nih.gov/research/umls/rxnorm","code":"197579","display":"dexamethasone 1 MG Oral Tablet","userSelected":true}]},"subject":{"reference":"Patient/a0dde151-99b6-4041-b8b5-680c29dcbea8"},"authoredOn":"2025-01-01T00:00:00.000Z","requester":{"reference":"Practitioner/practitioner-123456"},"dosageInstruction":[{"timing":{"repeat":{"boundsPeriod":{"start":"2025-01-02T00:00:00.000Z","end":"2025-04-02T00:00:00.000Z"}}}}]},"request":{"method":"PUT","url":"MedicationRequest/MedicationRequest-13"}},{"fullUrl":"https://madie.cms.gov/MeasureReport/bce0e109-ea6e-45d0-8570-405d9f0561b3","resource":{"resourceType":"MeasureReport","id":"bce0e109-ea6e-45d0-8570-405d9f0561b3","meta":{"profile":["http://hl7.org/fhir/us/cqfmeasures/StructureDefinition/test-case-cqfm"]},"contained":[{"resourceType":"Parameters","id":"62814593-00a0-4c51-ae21-a4e7d1528325-parameters","parameter":[{"name":"subject","valueString":"a0dde151-99b6-4041-b8b5-680c29dcbea8"}]}],"extension":[{"url":"http://hl7.org/fhir/us/cqfmeasures/StructureDefinition/cqfm-inputParameters","valueReference":{"reference":"#62814593-00a0-4c51-ae21-a4e7d1528325-parameters"}},{"url":"http://hl7.org/fhir/us/cqfmeasures/StructureDefinition/cqfm-testCaseDescription","valueMarkdown":"Glucocorticoid medication is active for 90 days during the MP."}],"modifierExtension":[{"url":"http://hl7.org/fhir/us/cqfmeasures/StructureDefinition/cqfm-isTestCase","valueBoolean":true}],"status":"complete","type":"individual","measure":"https://madie.cms.gov/Measure/AppropriateDXAScansForWomenUnder65FHIR","period":{"start":"2025-01-01","end":"2025-12-31"},"group":[{"population":[{"code":{"coding":[{"system":"http://terminology.hl7.org/CodeSystem/measure-population","code":"initial-population","display":"Initial Population"}]},"count":1},{"code":{"coding":[{"system":"http://terminology.hl7.org/CodeSystem/measure-population","code":"denominator","display":"Denominator"}]},"count":1},{"code":{"coding":[{"system":"http://terminology.hl7.org/CodeSystem/measure-population","code":"denominator-exclusion","display":"Denominator Exclusion"}]},"count":1},{"code":{"coding":[{"system":"http://terminology.hl7.org/CodeSystem/measure-population","code":"numerator","display":"Numerator"}]},"count":0},{"code":{"coding":[{"system":"http://terminology.hl7.org/CodeSystem/measure-population","code":"numerator-exclusion","display":"Numerator Exclusion"}]},"count":0}]}],"evaluatedResource":[{"reference":"Patient/a0dde151-99b6-4041-b8b5-680c29dcbea8"},{"reference":"Encounter/Encounter-13"},{"reference":"MedicationRequest/MedicationRequest-13"}]},"request":{"method":"PUT","url":"MeasureReport/bce0e109-ea6e-45d0-8570-405d9f0561b3"}}]}