{"resourceType":"Bundle","id":"tests-30cb1708-54d7-4268-bc37-5e7b4d31e789-bundle","type":"transaction","entry":[{"fullUrl":"https://madie.cms.gov/Patient/30cb1708-54d7-4268-bc37-5e7b4d31e789","resource":{"resourceType":"Patient","id":"30cb1708-54d7-4268-bc37-5e7b4d31e789","meta":{"profile":["http://hl7.org/fhir/us/qicore/StructureDefinition/qicore-patient"]},"extension":[{"url":"http://hl7.org/fhir/us/core/StructureDefinition/us-core-race","extension":[{"url":"ombCategory","valueCoding":{"system":"urn:oid:2.16.840.1.113883.6.238","code":"2028-9","display":"Asian"}},{"url":"text","valueString":"Asian"}]},{"url":"http://hl7.org/fhir/us/core/StructureDefinition/us-core-ethnicity","extension":[{"url":"ombCategory","valueCoding":{"system":"urn:oid:2.16.840.1.113883.6.238","code":"2135-2","display":"Hispanic or Latino"}},{"url":"text","valueString":"Hispanic or Latino"}]}],"identifier":[{"system":"http://hospital.smarthealthit.org","value":"999999995"}],"name":[{"family":"Bertha","given":["Betty"]}],"gender":"female","birthDate":"1975-01-01"},"request":{"method":"PUT","url":"Patient/30cb1708-54d7-4268-bc37-5e7b4d31e789"}},{"fullUrl":"https://madie.cms.gov/Encounter/Encounter-27","resource":{"resourceType":"Encounter","id":"Encounter-27","meta":{"profile":["http://hl7.org/fhir/us/qicore/StructureDefinition/qicore-encounter"]},"status":"finished","class":{"system":"http://terminology.hl7.org/CodeSystem/v3-ActCode","code":"AMB","display":"ambulatory"},"type":[{"coding":[{"system":"http://snomed.info/sct","code":"185317003","display":"Telephone encounter (procedure)"}]}],"subject":{"reference":"Patient/30cb1708-54d7-4268-bc37-5e7b4d31e789"},"period":{"start":"2025-01-01T01:00:00.000Z","end":"2025-01-01T01:15:00.000Z"}},"request":{"method":"PUT","url":"Encounter/Encounter-27"}},{"fullUrl":"https://madie.cms.gov/Observation/Observation-27","resource":{"resourceType":"Observation","id":"Observation-27","meta":{"profile":["http://hl7.org/fhir/us/qicore/StructureDefinition/qicore-observation"]},"status":"final","category":[{"coding":[{"system":"http://terminology.hl7.org/CodeSystem/observation-category","code":"survey","display":"Survey"}],"text":"Survey"}],"code":{"coding":[{"system":"http://loinc.org","code":"98139-9","display":"Osteoporosis Risk Assessment Instrument"}],"text":"ORAI"},"subject":{"reference":"Patient/30cb1708-54d7-4268-bc37-5e7b4d31e789"},"effectiveDateTime":"2025-01-01T00:00:00.000Z","valueInteger":9},"request":{"method":"PUT","url":"Observation/Observation-27"}},{"fullUrl":"https://madie.cms.gov/ServiceRequest/ServiceRequest-27","resource":{"resourceType":"ServiceRequest","id":"ServiceRequest-27","meta":{"profile":["http://hl7.org/fhir/us/qicore/StructureDefinition/qicore-servicerequest"]},"extension":[{"url":"http://hl7.org/fhir/StructureDefinition/request-statusReason","valueCodeableConcept":{"coding":[{"system":"http://snomed.info/sct","code":"15635006","display":"Requested by Patient"}]}}],"status":"completed","intent":"order","category":[{"coding":[{"system":"http://snomed.info/sct","code":"387713003","display":"Surgical procedure"}]}],"priority":"routine","code":{"coding":[{"system":"http://loinc.org","code":"24701-5","display":"DXA Femur [Mass/Area] Bone density"}]},"subject":{"reference":"Patient/30cb1708-54d7-4268-bc37-5e7b4d31e789"},"encounter":{"reference":"Encounter/Encounter-27"},"occurrenceDateTime":"2025-01-03","authoredOn":"2025-01-03","performerType":{"coding":[{"system":"http://snomed.info/sct","code":"405279007","display":"Attending physician (occupation)"}]},"reasonCode":[{"coding":[{"system":"http://snomed.info/sct","code":"123614006","display":"Partial Cataract (disorder)"}]}]},"request":{"method":"PUT","url":"ServiceRequest/ServiceRequest-27"}},{"fullUrl":"https://madie.cms.gov/MeasureReport/02410b81-29d2-4722-afa3-06a1b6fc9e7f","resource":{"resourceType":"MeasureReport","id":"02410b81-29d2-4722-afa3-06a1b6fc9e7f","meta":{"profile":["http://hl7.org/fhir/us/cqfmeasures/StructureDefinition/test-case-cqfm"]},"contained":[{"resourceType":"Parameters","id":"f52f22cc-6f64-4491-a1e2-f89f2bb31cef-parameters","parameter":[{"name":"subject","valueString":"30cb1708-54d7-4268-bc37-5e7b4d31e789"}]}],"extension":[{"url":"http://hl7.org/fhir/us/cqfmeasures/StructureDefinition/cqfm-inputParameters","valueReference":{"reference":"#f52f22cc-6f64-4491-a1e2-f89f2bb31cef-parameters"}},{"url":"http://hl7.org/fhir/us/cqfmeasures/StructureDefinition/cqfm-testCaseDescription","valueMarkdown":"ORAI risk assessment observation before DXA scan"}],"modifierExtension":[{"url":"http://hl7.org/fhir/us/cqfmeasures/StructureDefinition/cqfm-isTestCase","valueBoolean":true}],"status":"complete","type":"individual","measure":"https://madie.cms.gov/Measure/AppropriateDXAScansForWomenUnder65FHIR","period":{"start":"2025-01-01","end":"2025-12-31"},"group":[{"population":[{"code":{"coding":[{"system":"http://terminology.hl7.org/CodeSystem/measure-population","code":"initial-population","display":"Initial Population"}]},"count":1},{"code":{"coding":[{"system":"http://terminology.hl7.org/CodeSystem/measure-population","code":"denominator","display":"Denominator"}]},"count":1},{"code":{"coding":[{"system":"http://terminology.hl7.org/CodeSystem/measure-population","code":"denominator-exclusion","display":"Denominator Exclusion"}]},"count":0},{"code":{"coding":[{"system":"http://terminology.hl7.org/CodeSystem/measure-population","code":"numerator","display":"Numerator"}]},"count":1},{"code":{"coding":[{"system":"http://terminology.hl7.org/CodeSystem/measure-population","code":"numerator-exclusion","display":"Numerator Exclusion"}]},"count":1}]}],"evaluatedResource":[{"reference":"Patient/30cb1708-54d7-4268-bc37-5e7b4d31e789"},{"reference":"Encounter/Encounter-27"},{"reference":"Observation/Observation-27"},{"reference":"ServiceRequest/ServiceRequest-27"}]},"request":{"method":"PUT","url":"MeasureReport/02410b81-29d2-4722-afa3-06a1b6fc9e7f"}}]}