{"resourceType":"Bundle","id":"tests-6b1471ba-f1b5-4c2f-ae25-779c5694dfb8-bundle","type":"transaction","entry":[{"fullUrl":"https://madie.cms.gov/Patient/6b1471ba-f1b5-4c2f-ae25-779c5694dfb8","resource":{"resourceType":"Patient","id":"6b1471ba-f1b5-4c2f-ae25-779c5694dfb8","meta":{"profile":["http://hl7.org/fhir/us/qicore/StructureDefinition/qicore-patient"]},"text":{"status":"generated","div":"<div xmlns=\"http://www.w3.org/1999/xhtml\"><div class=\"hapiHeaderText\">EncDx_IschemicStrokeRank2 <b>DENEXFAIL </b></div><table class=\"hapiPropertyTable\"><tbody><tr><td>Identifier</td><td>29c9716eb5f48b54d7b337bf497e0e5e</td></tr><tr><td>Date of birth</td><td><span>01 December 2003</span></td></tr></tbody></table></div>"},"extension":[{"url":"http://hl7.org/fhir/us/core/StructureDefinition/us-core-race","extension":[{"url":"ombCategory","valueCoding":{"system":"urn:oid:2.16.840.1.113883.6.238","code":"1002-5","display":"American Indian or Alaska Native","userSelected":true}},{"url":"text","valueString":"American Indian or Alaska Native"}]},{"url":"http://hl7.org/fhir/us/core/StructureDefinition/us-core-ethnicity","extension":[{"url":"ombCategory","valueCoding":{"system":"urn:oid:2.16.840.1.113883.6.238","code":"2135-2","display":"Hispanic or Latino","userSelected":true}},{"url":"text","valueString":"Hispanic or Latino"}]}],"identifier":[{"type":{"coding":[{"system":"http://terminology.hl7.org/CodeSystem/v2-0203","code":"MR"}]},"system":"https://bonnie-fhir.healthit.gov/","value":"612e6aff02c62a011f2ec0bb"}],"active":true,"name":[{"use":"usual","family":"DENEXFail","given":["EncDx_IschemicStrokeRank2"]}],"gender":"female","birthDate":"2003-11-30"},"request":{"method":"PUT","url":"Patient/6b1471ba-f1b5-4c2f-ae25-779c5694dfb8"}},{"fullUrl":"https://madie.cms.gov/Encounter/5ca62962b8484628b8de1eb4","resource":{"resourceType":"Encounter","id":"ec61f737-8073-4c66-8a7a-ed03c96ed36a","meta":{"profile":["http://hl7.org/fhir/us/qicore/StructureDefinition/qicore-encounter"]},"status":"finished","class":{"system":"http://terminology.hl7.org/CodeSystem/v3-ActCode","code":"IMP","display":"inpatient encounter"},"type":[{"coding":[{"system":"http://snomed.info/sct","code":"183452005"}]}],"subject":{"reference":"Patient/6b1471ba-f1b5-4c2f-ae25-779c5694dfb8"},"period":{"start":"2025-12-01T01:00:00.000+00:00","end":"2025-12-31T23:59:00.000+00:00"},"length":{"value":30,"unit":"days"},"diagnosis":[{"condition":{"reference":"Condition/ischemic-stroke-e41d"},"use":{"coding":[{"system":"http://terminology.hl7.org/CodeSystem/diagnosis-role","code":"billing"}]}}]},"request":{"method":"PUT","url":"Encounter/ec61f737-8073-4c66-8a7a-ed03c96ed36a"}},{"fullUrl":"https://madie.cms.gov/Coverage/5fa041661c76ba66d995936a","resource":{"resourceType":"Coverage","id":"39268732-6db1-4af3-8774-9b412db826b2","status":"active","beneficiary":{"reference":"Patient/6b1471ba-f1b5-4c2f-ae25-779c5694dfb8"},"period":{"start":"2003-12-01T01:00:00+00:00"},"payor":[{"reference":"Organization/41c75c00-82d9-4ab2-98f6-cfaf7fc3381d"}]},"request":{"method":"PUT","url":"Coverage/39268732-6db1-4af3-8774-9b412db826b2"}},{"fullUrl":"https://madie.cms.gov/Condition/ischemic-stroke-e41d","resource":{"resourceType":"Condition","id":"1a99a34e-d9fa-4a26-aebc-04d3b07a9dbf","meta":{"profile":["http://hl7.org/fhir/us/qicore/StructureDefinition/qicore-condition"]},"category":[{"coding":[{"system":"http://terminology.hl7.org/CodeSystem/condition-category","code":"encounter-diagnosis","display":"Encounter Diagnosis"}]}],"code":{"coding":[{"system":"http://snomed.info/sct","code":"195185009","display":"Cerebral infarct due to thrombosis of precerebral arteries (disorder)","userSelected":true}]},"subject":{"reference":"Patient/6b1471ba-f1b5-4c2f-ae25-779c5694dfb8"},"recordedDate":"2025-12-12T08:00:00.000+00:00"},"request":{"method":"PUT","url":"Condition/1a99a34e-d9fa-4a26-aebc-04d3b07a9dbf"}},{"fullUrl":"https://madie.cms.gov/Organization/123456","resource":{"resourceType":"Organization","id":"41c75c00-82d9-4ab2-98f6-cfaf7fc3381d","meta":{"profile":["http://hl7.org/fhir/us/qicore/StructureDefinition/qicore-organization"]},"identifier":[{"use":"temp","system":"urn:oid:2.16.840.1.113883.4.4","value":"21-3259825"}],"active":true,"type":[{"coding":[{"system":"http://terminology.hl7.org/CodeSystem/organization-type","code":"pay","display":"Payer"}]}],"name":"Blue Cross Blue Shield of Texas","telecom":[{"system":"phone","value":"(+1) 972-766-6900"}],"address":[{"use":"billing","type":"postal","line":["P.O. Box 660044"],"city":"Dallas","state":"TX","postalCode":"75266-0044","country":"USA"}]},"request":{"method":"PUT","url":"Organization/41c75c00-82d9-4ab2-98f6-cfaf7fc3381d"}},{"fullUrl":"https://madie.cms.gov/Practitioner/practitioner-123456","resource":{"resourceType":"Practitioner","id":"b98dee70-29aa-4057-92a7-5e3d7d6049a5","identifier":[{"system":"http://hl7.org/fhir/sid/us-npi","value":"123456"}],"name":[{"family":"Evil","prefix":["Dr"]}]},"request":{"method":"PUT","url":"Practitioner/b98dee70-29aa-4057-92a7-5e3d7d6049a5"}},{"fullUrl":"https://madie.cms.gov/MeasureReport/469222bc-f9b1-4612-aaf6-ce9ad3d9d22b","resource":{"resourceType":"MeasureReport","id":"469222bc-f9b1-4612-aaf6-ce9ad3d9d22b","meta":{"profile":["http://hl7.org/fhir/us/cqfmeasures/StructureDefinition/test-case-cqfm"]},"contained":[{"resourceType":"Parameters","id":"7953d565-c8a1-4492-96dd-cfd486c2a881-parameters","parameter":[{"name":"subject","valueString":"6b1471ba-f1b5-4c2f-ae25-779c5694dfb8"}]}],"extension":[{"url":"http://hl7.org/fhir/us/cqfmeasures/StructureDefinition/cqfm-inputParameters","valueReference":{"reference":"#7953d565-c8a1-4492-96dd-cfd486c2a881-parameters"}},{"url":"http://hl7.org/fhir/us/cqfmeasures/StructureDefinition/cqfm-testCaseDescription","valueMarkdown":"Encounter Dx of Ischemic Stroke without Rank.\n"}],"modifierExtension":[{"url":"http://hl7.org/fhir/us/cqfmeasures/StructureDefinition/cqfm-isTestCase","valueBoolean":true}],"status":"complete","type":"individual","measure":"https://madie.cms.gov/Measure/VenousThromboembolismProphylaxisFHIR","period":{"start":"2025-01-01","end":"2025-12-31"},"group":[{"population":[{"code":{"coding":[{"system":"http://terminology.hl7.org/CodeSystem/measure-population","code":"initial-population","display":"Initial Population"}]},"count":1},{"code":{"coding":[{"system":"http://terminology.hl7.org/CodeSystem/measure-population","code":"denominator","display":"Denominator"}]},"count":1},{"code":{"coding":[{"system":"http://terminology.hl7.org/CodeSystem/measure-population","code":"denominator-exclusion","display":"Denominator Exclusion"}]},"count":0},{"code":{"coding":[{"system":"http://terminology.hl7.org/CodeSystem/measure-population","code":"numerator","display":"Numerator"}]},"count":0}]}]},"request":{"method":"PUT","url":"MeasureReport/469222bc-f9b1-4612-aaf6-ce9ad3d9d22b"}}]}