{"resourceType":"Bundle","id":"tests-fa475afd-7282-48cc-95bc-747bf3dac16a-bundle","type":"transaction","entry":[{"fullUrl":"https://madie.cms.gov/Patient/fa475afd-7282-48cc-95bc-747bf3dac16a","resource":{"resourceType":"Patient","id":"fa475afd-7282-48cc-95bc-747bf3dac16a","meta":{"profile":["http://hl7.org/fhir/us/qicore/StructureDefinition/qicore-patient"]},"text":{"status":"generated","div":"<div xmlns=\"http://www.w3.org/1999/xhtml\"><div class=\"hapiHeaderText\">WarfarinAFDisch_2Encounters <b>NUMERFAIL </b></div><table class=\"hapiPropertyTable\"><tbody><tr><td>Identifier</td><td>f6b3ce4fb2b87a4aa5f00ca8118e0e9a</td></tr><tr><td>Date of birth</td><td><span>02 January 1974</span></td></tr></tbody></table></div>"},"extension":[{"url":"http://hl7.org/fhir/us/core/StructureDefinition/us-core-race","extension":[{"url":"ombCategory","valueCoding":{"system":"urn:oid:2.16.840.1.113883.6.238","code":"1002-5","display":"American Indian or Alaska Native","userSelected":true}},{"url":"text","valueString":"American Indian or Alaska Native"}]},{"url":"http://hl7.org/fhir/us/core/StructureDefinition/us-core-ethnicity","extension":[{"url":"ombCategory","valueCoding":{"system":"urn:oid:2.16.840.1.113883.6.238","code":"2135-2","display":"Hispanic or Latino","userSelected":true}},{"url":"text","valueString":"Hispanic or Latino"}]}],"identifier":[{"type":{"coding":[{"system":"http://terminology.hl7.org/CodeSystem/v2-0203","code":"MR"}]},"system":"https://bonnie-fhir.healthit.gov/","value":"612e6b1602c62a011f2ec5e7"}],"active":true,"name":[{"use":"usual","family":"NUMERFail","given":["WarfarinAFDisch_2Encounters"]}],"gender":"male","birthDate":"1974-01-02"},"request":{"method":"PUT","url":"Patient/fa475afd-7282-48cc-95bc-747bf3dac16a"}},{"fullUrl":"https://madie.cms.gov/Encounter/5ca6295eb8484628b8de1da1","resource":{"resourceType":"Encounter","id":"5ca6295eb8484628b8de1da1","meta":{"profile":["http://hl7.org/fhir/us/qicore/StructureDefinition/qicore-encounter"]},"status":"finished","class":{"system":"http://terminology.hl7.org/CodeSystem/v3-ActCode","code":"IMP","display":"inpatient encounter"},"type":[{"coding":[{"system":"http://snomed.info/sct","code":"8715000"}]}],"subject":{"reference":"Patient/fa475afd-7282-48cc-95bc-747bf3dac16a"},"period":{"start":"2025-10-03T08:00:00+00:00","end":"2025-10-05T08:15:00+00:00"},"length":{"value":2.0,"unit":"days"},"diagnosis":[{"condition":{"reference":"Condition/hemorrhagic-stroke-1c3b"},"rank":1}]},"request":{"method":"PUT","url":"Encounter/5ca6295eb8484628b8de1da1"}},{"fullUrl":"https://madie.cms.gov/Encounter/5ca6295eb8484628b8de1da2","resource":{"resourceType":"Encounter","id":"5ca6295eb8484628b8de1da2","meta":{"profile":["http://hl7.org/fhir/us/qicore/StructureDefinition/qicore-encounter"]},"status":"finished","class":{"system":"http://terminology.hl7.org/CodeSystem/v3-ActCode","code":"IMP","display":"inpatient encounter"},"type":[{"coding":[{"system":"http://snomed.info/sct","code":"8715000"}]}],"subject":{"reference":"Patient/fa475afd-7282-48cc-95bc-747bf3dac16a"},"period":{"start":"2025-11-01T08:00:00+00:00","end":"2025-11-26T08:15:00+00:00"},"length":{"value":25.0,"unit":"days"}},"request":{"method":"PUT","url":"Encounter/5ca6295eb8484628b8de1da2"}},{"fullUrl":"https://madie.cms.gov/Coverage/5fa041691c76ba66d995939d","resource":{"resourceType":"Coverage","id":"5fa041691c76ba66d995939d","status":"active","beneficiary":{"reference":"Patient/fa475afd-7282-48cc-95bc-747bf3dac16a"},"period":{"start":"1974-01-02T08:00:00+00:00"},"payor":[{"reference":"Organization/Org-123456"}]},"request":{"method":"PUT","url":"Coverage/5fa041691c76ba66d995939d"}},{"fullUrl":"https://madie.cms.gov/MedicationAdministration/5ca6295eb8484628b8de1da3","resource":{"resourceType":"MedicationAdministration","id":"5ca6295eb8484628b8de1da3","meta":{"profile":["http://hl7.org/fhir/us/qicore/StructureDefinition/qicore-medicationadministration"]},"status":"completed","medicationCodeableConcept":{"coding":[{"system":"http://www.nlm.nih.gov/research/umls/rxnorm","code":"855288"}]},"subject":{"reference":"Patient/fa475afd-7282-48cc-95bc-747bf3dac16a"},"effectiveDateTime":"2025-10-26T08:00:00.000+00:00"},"request":{"method":"PUT","url":"MedicationAdministration/5ca6295eb8484628b8de1da3"}},{"fullUrl":"https://madie.cms.gov/Organization/123456","resource":{"resourceType":"Organization","id":"Org-123456","meta":{"profile":["http://hl7.org/fhir/us/qicore/StructureDefinition/qicore-organization"]},"identifier":[{"use":"temp","system":"urn:oid:2.16.840.1.113883.4.4","value":"21-3259825"}],"active":true,"type":[{"coding":[{"system":"http://terminology.hl7.org/CodeSystem/organization-type","code":"pay","display":"Payer"}]}],"name":"Blue Cross Blue Shield of Texas","telecom":[{"system":"phone","value":"(+1) 972-766-6900"}],"address":[{"use":"billing","type":"postal","line":["P.O. Box 660044"],"city":"Dallas","state":"TX","postalCode":"75266-0044","country":"USA"}]},"request":{"method":"PUT","url":"Organization/Org-123456"}},{"fullUrl":"https://madie.cms.gov/Practitioner/practitioner-123456","resource":{"resourceType":"Practitioner","id":"practitioner-123456","identifier":[{"system":"http://hl7.org/fhir/sid/us-npi","value":"123456"}],"name":[{"family":"Evil","prefix":["Dr"]}]},"request":{"method":"PUT","url":"Practitioner/practitioner-123456"}},{"fullUrl":"https://madie.cms.gov/MeasureReport/9e2a7d86-2122-4573-8537-463346671bcf","resource":{"resourceType":"MeasureReport","id":"9e2a7d86-2122-4573-8537-463346671bcf","meta":{"profile":["http://hl7.org/fhir/us/cqfmeasures/StructureDefinition/test-case-cqfm"]},"contained":[{"resourceType":"Parameters","id":"1ca5fcd3-2be6-467e-8cf7-90d898eaec94-parameters","parameter":[{"name":"subject","valueString":"fa475afd-7282-48cc-95bc-747bf3dac16a"}]}],"extension":[{"url":"http://hl7.org/fhir/us/cqfmeasures/StructureDefinition/cqfm-inputParameters","valueReference":{"reference":"#1ca5fcd3-2be6-467e-8cf7-90d898eaec94-parameters"}},{"url":"http://hl7.org/fhir/us/cqfmeasures/StructureDefinition/cqfm-testCaseDescription","valueMarkdown":"2 encounters. warfarin administered 1 day Before 2nd encounter\n"}],"modifierExtension":[{"url":"http://hl7.org/fhir/us/cqfmeasures/StructureDefinition/cqfm-isTestCase","valueBoolean":true}],"status":"complete","type":"individual","measure":"https://madie.cms.gov/Measure/VenousThromboembolismProphylaxisFHIR","period":{"start":"2025-01-01","end":"2025-12-31"},"group":[{"population":[{"code":{"coding":[{"system":"http://terminology.hl7.org/CodeSystem/measure-population","code":"initial-population","display":"Initial Population"}]},"count":2},{"code":{"coding":[{"system":"http://terminology.hl7.org/CodeSystem/measure-population","code":"denominator","display":"Denominator"}]},"count":2},{"code":{"coding":[{"system":"http://terminology.hl7.org/CodeSystem/measure-population","code":"denominator-exclusion","display":"Denominator Exclusion"}]},"count":0},{"code":{"coding":[{"system":"http://terminology.hl7.org/CodeSystem/measure-population","code":"numerator","display":"Numerator"}]},"count":0}]}],"evaluatedResource":[{"reference":"Patient/fa475afd-7282-48cc-95bc-747bf3dac16a"},{"reference":"Encounter/5ca6295eb8484628b8de1da1"},{"reference":"Encounter/5ca6295eb8484628b8de1da2"},{"reference":"Coverage/5fa041691c76ba66d995939d"},{"reference":"MedicationAdministration/5ca6295eb8484628b8de1da3"},{"reference":"Organization/Org-123456"},{"reference":"Practitioner/practitioner-123456"}]},"request":{"method":"PUT","url":"MeasureReport/9e2a7d86-2122-4573-8537-463346671bcf"}}]}