{"resourceType":"Bundle","id":"tests-c0ddfe7a-d2b7-43d2-a51f-7190870e39c5-bundle","type":"transaction","entry":[{"fullUrl":"https://madie.cms.gov/Patient/c0ddfe7a-d2b7-43d2-a51f-7190870e39c5","resource":{"resourceType":"Patient","id":"c0ddfe7a-d2b7-43d2-a51f-7190870e39c5","meta":{"profile":["http://hl7.org/fhir/us/qicore/StructureDefinition/qicore-patient"]},"text":{"status":"generated","div":"<div xmlns=\"http://www.w3.org/1999/xhtml\"><div class=\"hapiHeaderText\">LOSLT2Days <b>DENEXPASS </b></div><table class=\"hapiPropertyTable\"><tbody><tr><td>Identifier</td><td>26fb5d0b2c67d4a85fcb0701daa6142b</td></tr><tr><td>Date of birth</td><td><span>02 January 1974</span></td></tr></tbody></table></div>"},"extension":[{"url":"http://hl7.org/fhir/us/core/StructureDefinition/us-core-race","extension":[{"url":"ombCategory","valueCoding":{"system":"urn:oid:2.16.840.1.113883.6.238","code":"1002-5","display":"American Indian or Alaska Native","userSelected":true}},{"url":"text","valueString":"American Indian or Alaska Native"}]},{"url":"http://hl7.org/fhir/us/core/StructureDefinition/us-core-ethnicity","extension":[{"url":"ombCategory","valueCoding":{"system":"urn:oid:2.16.840.1.113883.6.238","code":"2135-2","display":"Hispanic or Latino","userSelected":true}},{"url":"text","valueString":"Hispanic or Latino"}]}],"identifier":[{"type":{"coding":[{"system":"http://terminology.hl7.org/CodeSystem/v2-0203","code":"MR"}]},"system":"https://bonnie-fhir.healthit.gov/","value":"612e6b3902c62a011f2ecf1f"}],"active":true,"name":[{"use":"usual","family":"DENEXPass","given":["LOSLT2Days"]}],"gender":"male","birthDate":"1974-01-02"},"request":{"method":"PUT","url":"Patient/c0ddfe7a-d2b7-43d2-a51f-7190870e39c5"}},{"fullUrl":"https://madie.cms.gov/Encounter/5ca6295db8484628b8de1d53","resource":{"resourceType":"Encounter","id":"bda9faf8-8494-4b3d-87ce-31f87394f77f","meta":{"profile":["http://hl7.org/fhir/us/qicore/StructureDefinition/qicore-encounter"]},"status":"finished","class":{"system":"http://terminology.hl7.org/CodeSystem/v3-ActCode","code":"IMP","display":"inpatient encounter"},"type":[{"coding":[{"system":"http://snomed.info/sct","code":"8715000"}]}],"subject":{"reference":"Patient/c0ddfe7a-d2b7-43d2-a51f-7190870e39c5"},"period":{"start":"2025-11-01T00:00:00+00:00","end":"2025-11-02T23:59:00+00:00"},"length":{"value":1.0,"unit":"days"}},"request":{"method":"PUT","url":"Encounter/bda9faf8-8494-4b3d-87ce-31f87394f77f"}},{"fullUrl":"https://madie.cms.gov/Coverage/5fa0414a1c76ba66d9959181","resource":{"resourceType":"Coverage","id":"efee6262-5f3f-49c0-b35f-df8d854a2591","status":"active","beneficiary":{"reference":"Patient/c0ddfe7a-d2b7-43d2-a51f-7190870e39c5"},"period":{"start":"1974-01-02T08:00:00+00:00"},"payor":[{"reference":"Organization/4b5a882f-1f43-485c-85c6-f5ad2337d5b1"}]},"request":{"method":"PUT","url":"Coverage/efee6262-5f3f-49c0-b35f-df8d854a2591"}},{"fullUrl":"https://madie.cms.gov/Organization/123456","resource":{"resourceType":"Organization","id":"4b5a882f-1f43-485c-85c6-f5ad2337d5b1","meta":{"profile":["http://hl7.org/fhir/us/qicore/StructureDefinition/qicore-organization"]},"identifier":[{"use":"temp","system":"urn:oid:2.16.840.1.113883.4.4","value":"21-3259825"}],"active":true,"type":[{"coding":[{"system":"http://terminology.hl7.org/CodeSystem/organization-type","code":"pay","display":"Payer"}]}],"name":"Blue Cross Blue Shield of Texas","telecom":[{"system":"phone","value":"(+1) 972-766-6900"}],"address":[{"use":"billing","type":"postal","line":["P.O. Box 660044"],"city":"Dallas","state":"TX","postalCode":"75266-0044","country":"USA"}]},"request":{"method":"PUT","url":"Organization/4b5a882f-1f43-485c-85c6-f5ad2337d5b1"}},{"fullUrl":"https://madie.cms.gov/Practitioner/practitioner-123456","resource":{"resourceType":"Practitioner","id":"9b1c2099-0881-411f-9115-a06ea50f53c2","identifier":[{"system":"http://hl7.org/fhir/sid/us-npi","value":"123456"}],"name":[{"family":"Evil","prefix":["Dr"]}]},"request":{"method":"PUT","url":"Practitioner/9b1c2099-0881-411f-9115-a06ea50f53c2"}},{"fullUrl":"https://madie.cms.gov/MeasureReport/0bd31324-1f4a-480d-a85f-944b93cca39a","resource":{"resourceType":"MeasureReport","id":"0bd31324-1f4a-480d-a85f-944b93cca39a","meta":{"profile":["http://hl7.org/fhir/us/cqfmeasures/StructureDefinition/test-case-cqfm"]},"contained":[{"resourceType":"Parameters","id":"1cae7d2b-9001-48be-92d9-d285c3474197-parameters","parameter":[{"name":"subject","valueString":"c0ddfe7a-d2b7-43d2-a51f-7190870e39c5"}]}],"extension":[{"url":"http://hl7.org/fhir/us/cqfmeasures/StructureDefinition/cqfm-inputParameters","valueReference":{"reference":"#1cae7d2b-9001-48be-92d9-d285c3474197-parameters"}},{"url":"http://hl7.org/fhir/us/cqfmeasures/StructureDefinition/cqfm-testCaseDescription","valueMarkdown":"LOS = 1 days\n"}],"modifierExtension":[{"url":"http://hl7.org/fhir/us/cqfmeasures/StructureDefinition/cqfm-isTestCase","valueBoolean":true}],"status":"complete","type":"individual","measure":"https://madie.cms.gov/Measure/VenousThromboembolismProphylaxisFHIR","period":{"start":"2025-01-01","end":"2025-12-31"},"group":[{"population":[{"code":{"coding":[{"system":"http://terminology.hl7.org/CodeSystem/measure-population","code":"initial-population","display":"Initial Population"}]},"count":1},{"code":{"coding":[{"system":"http://terminology.hl7.org/CodeSystem/measure-population","code":"denominator","display":"Denominator"}]},"count":1},{"code":{"coding":[{"system":"http://terminology.hl7.org/CodeSystem/measure-population","code":"denominator-exclusion","display":"Denominator Exclusion"}]},"count":1},{"code":{"coding":[{"system":"http://terminology.hl7.org/CodeSystem/measure-population","code":"numerator","display":"Numerator"}]},"count":0}]}]},"request":{"method":"PUT","url":"MeasureReport/0bd31324-1f4a-480d-a85f-944b93cca39a"}}]}