{"resourceType":"Bundle","id":"tests-70a5b41a-14ac-4e08-b661-d5523ad80fbf-bundle","type":"transaction","entry":[{"fullUrl":"https://madie.cms.gov/Patient/70a5b41a-14ac-4e08-b661-d5523ad80fbf","resource":{"resourceType":"Patient","id":"70a5b41a-14ac-4e08-b661-d5523ad80fbf","meta":{"profile":["http://hl7.org/fhir/us/qicore/StructureDefinition/qicore-patient"]},"text":{"status":"generated","div":"<div xmlns=\"http://www.w3.org/1999/xhtml\"><div class=\"hapiHeaderText\">SCIPNeuroRank1RvltDTDrgEncSMD <b>DENEXPASS </b></div><table class=\"hapiPropertyTable\"><tbody><tr><td>Identifier</td><td>66c70c125db369967b4b164e75338304</td></tr><tr><td>Date of birth</td><td><span>01 September 2000</span></td></tr></tbody></table></div>"},"extension":[{"url":"http://hl7.org/fhir/us/core/StructureDefinition/us-core-race","extension":[{"url":"ombCategory","valueCoding":{"system":"urn:oid:2.16.840.1.113883.6.238","code":"1002-5","display":"American Indian or Alaska Native","userSelected":true}},{"url":"text","valueString":"American Indian or Alaska Native"}]},{"url":"http://hl7.org/fhir/us/core/StructureDefinition/us-core-ethnicity","extension":[{"url":"ombCategory","valueCoding":{"system":"urn:oid:2.16.840.1.113883.6.238","code":"2135-2","display":"Hispanic or Latino","userSelected":true}},{"url":"text","valueString":"Hispanic or Latino"}]}],"identifier":[{"type":{"coding":[{"system":"http://terminology.hl7.org/CodeSystem/v2-0203","code":"MR"}]},"system":"https://bonnie-fhir.healthit.gov/","value":"612e6b2202c62a011f2ec9a3"}],"active":true,"name":[{"use":"usual","family":"DENEXPass","given":["SCIPNeuroRank1RvltDTDrgEncSMD"]}],"gender":"male","birthDate":"2000-09-01"},"request":{"method":"PUT","url":"Patient/70a5b41a-14ac-4e08-b661-d5523ad80fbf"}},{"fullUrl":"https://madie.cms.gov/Encounter/5ca62965b8484628b8de1fae","resource":{"resourceType":"Encounter","id":"e4d02f75-e2a9-4677-83b3-6d13cfb1b034","meta":{"profile":["http://hl7.org/fhir/us/qicore/StructureDefinition/qicore-encounter"]},"extension":[{"url":"http://hl7.org/fhir/us/qicore/StructureDefinition/qicore-encounter-procedure","extension":[{"url":"type","valueCodeableConcept":{"coding":[{"system":"http://snomed.info/sct","code":"14247003","display":"Cerebral hemispherectomy (procedure)"}]}},{"url":"rank","valuePositiveInt":1},{"url":"procedure","valueReference":{"reference":"Procedure/5e21be93f9757500009ed4e7"}}]}],"status":"finished","class":{"system":"http://terminology.hl7.org/CodeSystem/v3-ActCode","code":"IMP","display":"inpatient encounter"},"type":[{"coding":[{"system":"http://snomed.info/sct","code":"183452005"}]}],"subject":{"reference":"Patient/70a5b41a-14ac-4e08-b661-d5523ad80fbf"},"period":{"start":"2025-09-02T06:00:00+00:00","end":"2025-12-31T12:59:00+00:00"},"length":{"value":120.0,"unit":"days"}},"request":{"method":"PUT","url":"Encounter/e4d02f75-e2a9-4677-83b3-6d13cfb1b034"}},{"fullUrl":"https://madie.cms.gov/Coverage/5fa041661c76ba66d9959370","resource":{"resourceType":"Coverage","id":"c176346f-c039-4d23-93e4-bb3a03118e98","status":"active","beneficiary":{"reference":"Patient/70a5b41a-14ac-4e08-b661-d5523ad80fbf"},"period":{"start":"2000-09-01T08:00:00+00:00"},"payor":[{"reference":"Organization/4b5a882f-1f43-485c-85c6-f5ad2337d5b1"}]},"request":{"method":"PUT","url":"Coverage/c176346f-c039-4d23-93e4-bb3a03118e98"}},{"fullUrl":"https://madie.cms.gov/Procedure/5e21be93f9757500009ed4e7","resource":{"resourceType":"Procedure","id":"378a2bcf-1a57-4620-9f1c-b00ea22c8602","meta":{"profile":["http://hl7.org/fhir/us/qicore/StructureDefinition/qicore-procedure"]},"extension":[{"url":"http://hl7.org/fhir/us/qicore/StructureDefinition/qicore-recorded","valueDateTime":"2012-09-02T09:35:00-04:00"}],"status":"completed","code":{"coding":[{"system":"http://snomed.info/sct","code":"14247003","display":"Cerebral hemispherectomy (procedure)"}]},"subject":{"reference":"Patient/70a5b41a-14ac-4e08-b661-d5523ad80fbf"},"performedDateTime":"2025-09-02T09:00:00+00:00"},"request":{"method":"PUT","url":"Procedure/378a2bcf-1a57-4620-9f1c-b00ea22c8602"}},{"fullUrl":"https://madie.cms.gov/Organization/123456","resource":{"resourceType":"Organization","id":"4b5a882f-1f43-485c-85c6-f5ad2337d5b1","meta":{"profile":["http://hl7.org/fhir/us/qicore/StructureDefinition/qicore-organization"]},"identifier":[{"use":"temp","system":"urn:oid:2.16.840.1.113883.4.4","value":"21-3259825"}],"active":true,"type":[{"coding":[{"system":"http://terminology.hl7.org/CodeSystem/organization-type","code":"pay","display":"Payer"}]}],"name":"Blue Cross Blue Shield of Texas","telecom":[{"system":"phone","value":"(+1) 972-766-6900"}],"address":[{"use":"billing","type":"postal","line":["P.O. Box 660044"],"city":"Dallas","state":"TX","postalCode":"75266-0044","country":"USA"}]},"request":{"method":"PUT","url":"Organization/4b5a882f-1f43-485c-85c6-f5ad2337d5b1"}},{"fullUrl":"https://madie.cms.gov/Practitioner/practitioner-123456","resource":{"resourceType":"Practitioner","id":"61eedf25-26d2-41ae-ae8f-93e5adf9a4f6","identifier":[{"system":"http://hl7.org/fhir/sid/us-npi","value":"123456"}],"name":[{"family":"Evil","prefix":["Dr"]}]},"request":{"method":"PUT","url":"Practitioner/61eedf25-26d2-41ae-ae8f-93e5adf9a4f6"}},{"fullUrl":"https://madie.cms.gov/MeasureReport/ca52f074-6461-4f78-87a3-910b1a1eab81","resource":{"resourceType":"MeasureReport","id":"ca52f074-6461-4f78-87a3-910b1a1eab81","meta":{"profile":["http://hl7.org/fhir/us/cqfmeasures/StructureDefinition/test-case-cqfm"]},"contained":[{"resourceType":"Parameters","id":"4fda239b-cbd7-4215-9ec3-297701e2e70e-parameters","parameter":[{"name":"subject","valueString":"70a5b41a-14ac-4e08-b661-d5523ad80fbf"}]}],"extension":[{"url":"http://hl7.org/fhir/us/cqfmeasures/StructureDefinition/cqfm-inputParameters","valueReference":{"reference":"#4fda239b-cbd7-4215-9ec3-297701e2e70e-parameters"}},{"url":"http://hl7.org/fhir/us/cqfmeasures/StructureDefinition/cqfm-testCaseDescription","valueMarkdown":"duplicate case by using SNOMED CT code for Neuro Px."}],"modifierExtension":[{"url":"http://hl7.org/fhir/us/cqfmeasures/StructureDefinition/cqfm-isTestCase","valueBoolean":true}],"status":"complete","type":"individual","measure":"https://madie.cms.gov/Measure/VenousThromboembolismProphylaxisFHIR","period":{"start":"2025-01-01","end":"2025-12-31"},"group":[{"population":[{"code":{"coding":[{"system":"http://terminology.hl7.org/CodeSystem/measure-population","code":"initial-population","display":"Initial Population"}]},"count":1},{"code":{"coding":[{"system":"http://terminology.hl7.org/CodeSystem/measure-population","code":"denominator","display":"Denominator"}]},"count":1},{"code":{"coding":[{"system":"http://terminology.hl7.org/CodeSystem/measure-population","code":"denominator-exclusion","display":"Denominator Exclusion"}]},"count":1},{"code":{"coding":[{"system":"http://terminology.hl7.org/CodeSystem/measure-population","code":"numerator","display":"Numerator"}]},"count":0}]}]},"request":{"method":"PUT","url":"MeasureReport/ca52f074-6461-4f78-87a3-910b1a1eab81"}}]}