{"resourceType":"Bundle","id":"tests-eacabf8a-bf5b-4bcf-b83d-825fec8440df-bundle","type":"transaction","entry":[{"fullUrl":"https://madie.cms.gov/Patient/eacabf8a-bf5b-4bcf-b83d-825fec8440df","resource":{"resourceType":"Patient","id":"eacabf8a-bf5b-4bcf-b83d-825fec8440df","meta":{"profile":["http://hl7.org/fhir/us/qicore/StructureDefinition/qicore-patient"]},"text":{"status":"generated","div":"<div xmlns=\"http://www.w3.org/1999/xhtml\"><div class=\"hapiHeaderText\">AgeEQ18SameDay1HrLess <b>IPPPASS </b></div><table class=\"hapiPropertyTable\"><tbody><tr><td>Identifier</td><td>4a3cf6afd879a8f9468f9b4b43b7b032</td></tr><tr><td>Date of birth</td><td><span>02 September 2003</span></td></tr></tbody></table></div>"},"extension":[{"url":"http://hl7.org/fhir/us/core/StructureDefinition/us-core-race","extension":[{"url":"ombCategory","valueCoding":{"system":"urn:oid:2.16.840.1.113883.6.238","code":"1002-5","display":"American Indian or Alaska Native","userSelected":true}},{"url":"detailed","valueCoding":{"system":"urn:oid:2.16.840.1.113883.6.238","code":"2036-2","display":"Filipino"}},{"url":"text","valueString":"American Indian or Alaska Native"}]},{"url":"http://hl7.org/fhir/us/core/StructureDefinition/us-core-ethnicity","extension":[{"url":"ombCategory","valueCoding":{"system":"urn:oid:2.16.840.1.113883.6.238","code":"2135-2","display":"Hispanic or Latino","userSelected":true}},{"url":"text","valueString":"Hispanic or Latino"},{"url":"detailed","valueCoding":{"system":"urn:oid:2.16.840.1.113883.6.238","code":"2153-5","display":"Mexican American Indian"}}]}],"identifier":[{"type":{"coding":[{"system":"http://terminology.hl7.org/CodeSystem/v2-0203","code":"MR"}]},"system":"https://bonnie-fhir.healthit.gov/","value":"612e6b6f02c62a011f2edb83"}],"active":true,"name":[{"use":"usual","family":"IPPPass","given":["AgeEQ18SameDay1HrLess"]}],"gender":"other","birthDate":"2003-09-02"},"request":{"method":"PUT","url":"Patient/eacabf8a-bf5b-4bcf-b83d-825fec8440df"}},{"fullUrl":"https://madie.cms.gov/Encounter/5ca62962b8484628b8de1eb6","resource":{"resourceType":"Encounter","id":"9013827f-5427-4e68-a20c-90da17b432ec","meta":{"profile":["http://hl7.org/fhir/us/qicore/StructureDefinition/qicore-encounter"]},"status":"finished","class":{"system":"http://terminology.hl7.org/CodeSystem/v3-ActCode","code":"IMP","display":"inpatient encounter"},"type":[{"coding":[{"system":"http://snomed.info/sct","code":"183452005"}]}],"subject":{"reference":"Patient/eacabf8a-bf5b-4bcf-b83d-825fec8440df"},"period":{"start":"2025-09-02T08:00:00.000+00:00","end":"2025-10-01T12:59:00.000+00:00"},"length":{"value":30,"unit":"days"}},"request":{"method":"PUT","url":"Encounter/9013827f-5427-4e68-a20c-90da17b432ec"}},{"fullUrl":"https://madie.cms.gov/Coverage/5fa0415d1c76ba66d99592ce","resource":{"resourceType":"Coverage","id":"c5fcf072-97f2-447f-8875-37bb10f5f052","status":"active","beneficiary":{"reference":"Patient/eacabf8a-bf5b-4bcf-b83d-825fec8440df"},"payor":[{"reference":"Organization/42846cc3-1db0-4bf7-b9ff-8b81fa6e835d"}]},"request":{"method":"PUT","url":"Coverage/c5fcf072-97f2-447f-8875-37bb10f5f052"}},{"fullUrl":"https://madie.cms.gov/Organization/123456","resource":{"resourceType":"Organization","id":"42846cc3-1db0-4bf7-b9ff-8b81fa6e835d","meta":{"profile":["http://hl7.org/fhir/us/qicore/StructureDefinition/qicore-organization"]},"identifier":[{"use":"temp","system":"urn:oid:2.16.840.1.113883.4.4","value":"21-3259825"}],"active":true,"type":[{"coding":[{"system":"http://terminology.hl7.org/CodeSystem/organization-type","code":"pay","display":"Payer"}]}],"name":"Blue Cross Blue Shield of Texas","telecom":[{"system":"phone","value":"(+1) 972-766-6900"}],"address":[{"use":"billing","type":"postal","line":["P.O. Box 660044"],"city":"Dallas","state":"TX","postalCode":"75266-0044","country":"USA"}]},"request":{"method":"PUT","url":"Organization/42846cc3-1db0-4bf7-b9ff-8b81fa6e835d"}},{"fullUrl":"https://madie.cms.gov/Practitioner/practitioner-123456","resource":{"resourceType":"Practitioner","id":"06dfab31-2891-4ecc-8203-f6e60992c67e","identifier":[{"system":"http://hl7.org/fhir/sid/us-npi","value":"123456"}],"name":[{"family":"Evil","prefix":["Dr"]}]},"request":{"method":"PUT","url":"Practitioner/06dfab31-2891-4ecc-8203-f6e60992c67e"}},{"fullUrl":"https://madie.cms.gov/MeasureReport/107826d8-2776-4784-88ee-0c1926d7f5c3","resource":{"resourceType":"MeasureReport","id":"107826d8-2776-4784-88ee-0c1926d7f5c3","meta":{"profile":["http://hl7.org/fhir/us/cqfmeasures/StructureDefinition/test-case-cqfm"]},"contained":[{"resourceType":"Parameters","id":"a097d8f4-7f8a-4752-9769-92aaf056c411-parameters","parameter":[{"name":"subject","valueString":"eacabf8a-bf5b-4bcf-b83d-825fec8440df"}]}],"extension":[{"url":"http://hl7.org/fhir/us/cqfmeasures/StructureDefinition/cqfm-inputParameters","valueReference":{"reference":"#a097d8f4-7f8a-4752-9769-92aaf056c411-parameters"}},{"url":"http://hl7.org/fhir/us/cqfmeasures/StructureDefinition/cqfm-testCaseDescription","valueMarkdown":"Patient turns 18 day of inpatient admission\n"}],"modifierExtension":[{"url":"http://hl7.org/fhir/us/cqfmeasures/StructureDefinition/cqfm-isTestCase","valueBoolean":true}],"status":"complete","type":"individual","measure":"https://madie.cms.gov/Measure/VenousThromboembolismProphylaxisFHIR","period":{"start":"2025-01-01","end":"2025-12-31"},"group":[{"population":[{"code":{"coding":[{"system":"http://terminology.hl7.org/CodeSystem/measure-population","code":"initial-population","display":"Initial Population"}]},"count":1},{"code":{"coding":[{"system":"http://terminology.hl7.org/CodeSystem/measure-population","code":"denominator","display":"Denominator"}]},"count":1},{"code":{"coding":[{"system":"http://terminology.hl7.org/CodeSystem/measure-population","code":"denominator-exclusion","display":"Denominator Exclusion"}]},"count":0},{"code":{"coding":[{"system":"http://terminology.hl7.org/CodeSystem/measure-population","code":"numerator","display":"Numerator"}]},"count":0}]}]},"request":{"method":"PUT","url":"MeasureReport/107826d8-2776-4784-88ee-0c1926d7f5c3"}}]}