{"resourceType":"Bundle","id":"tests-0190ef4b-c22d-4177-b293-874f1a9030a6-bundle","type":"transaction","entry":[{"fullUrl":"https://madie.cms.gov/Patient/0190ef4b-c22d-4177-b293-874f1a9030a6","resource":{"resourceType":"Patient","id":"0190ef4b-c22d-4177-b293-874f1a9030a6","meta":{"profile":["http://hl7.org/fhir/us/qicore/StructureDefinition/qicore-patient"]},"text":{"status":"generated","div":"<div xmlns=\"http://www.w3.org/1999/xhtml\"><div class=\"hapiHeaderText\">Dx=VTEduringEDGT1hrB4Enc <b>IPPPASS </b></div><table class=\"hapiPropertyTable\"><tbody><tr><td>Identifier</td><td>af2986d42642f004962c32566bf64a58</td></tr><tr><td>Date of birth</td><td><span>02 September 2003</span></td></tr></tbody></table></div>"},"extension":[{"url":"http://hl7.org/fhir/us/core/StructureDefinition/us-core-race","extension":[{"url":"ombCategory","valueCoding":{"system":"urn:oid:2.16.840.1.113883.6.238","code":"1002-5","display":"American Indian or Alaska Native","userSelected":true}},{"url":"text","valueString":"American Indian or Alaska Native"}]},{"url":"http://hl7.org/fhir/us/core/StructureDefinition/us-core-ethnicity","extension":[{"url":"ombCategory","valueCoding":{"system":"urn:oid:2.16.840.1.113883.6.238","code":"2135-2","display":"Hispanic or Latino","userSelected":true}},{"url":"text","valueString":"Hispanic or Latino"}]}],"identifier":[{"type":{"coding":[{"system":"http://terminology.hl7.org/CodeSystem/v2-0203","code":"MR"}]},"system":"https://bonnie-fhir.healthit.gov/","value":"612e6b6c02c62a011f2edb06"}],"active":true,"name":[{"use":"usual","family":"IPPPass","given":["DxVTEduringEDGT1hrB4Enc"]}],"gender":"male","birthDate":"2003-09-02"},"request":{"method":"PUT","url":"Patient/0190ef4b-c22d-4177-b293-874f1a9030a6"}},{"fullUrl":"https://madie.cms.gov/Encounter/5ca6295cb8484628b8de1d18","resource":{"resourceType":"Encounter","id":"4a18fdac-7ddf-45bd-b938-0611998b16a8","meta":{"profile":["http://hl7.org/fhir/us/qicore/StructureDefinition/qicore-encounter"]},"status":"finished","class":{"system":"http://terminology.hl7.org/CodeSystem/v3-ActCode","code":"EMER","display":"emergency"},"type":[{"coding":[{"system":"http://snomed.info/sct","code":"4525004"}]}],"subject":{"reference":"Patient/0190ef4b-c22d-4177-b293-874f1a9030a6"},"period":{"start":"2025-09-02T09:00:00+00:00","end":"2025-09-02T10:59:00+00:00"},"length":{"value":0,"unit":"days"}},"request":{"method":"PUT","url":"Encounter/4a18fdac-7ddf-45bd-b938-0611998b16a8"}},{"fullUrl":"https://madie.cms.gov/Encounter/5ca6295cb8484628b8de1d19","resource":{"resourceType":"Encounter","id":"a3fa6fea-719d-4d46-be11-600101b2c9d8","meta":{"profile":["http://hl7.org/fhir/us/qicore/StructureDefinition/qicore-encounter"]},"status":"finished","class":{"system":"http://terminology.hl7.org/CodeSystem/v3-ActCode","code":"IMP","display":"inpatient encounter"},"type":[{"coding":[{"system":"http://snomed.info/sct","code":"183452005"}]}],"subject":{"reference":"Patient/0190ef4b-c22d-4177-b293-874f1a9030a6"},"period":{"start":"2025-09-02T12:01:00+00:00","end":"2025-12-31T23:59:00+00:00"},"length":{"value":120,"unit":"days"}},"request":{"method":"PUT","url":"Encounter/a3fa6fea-719d-4d46-be11-600101b2c9d8"}},{"fullUrl":"https://madie.cms.gov/Coverage/5fa0415c1c76ba66d99592c8","resource":{"resourceType":"Coverage","id":"1f42c0f5-90ad-4c63-8ccb-321f696c9946","status":"active","beneficiary":{"reference":"Patient/0190ef4b-c22d-4177-b293-874f1a9030a6"},"period":{"start":"2003-09-02T08:00:00+00:00"},"payor":[{"reference":"Organization/4b5a882f-1f43-485c-85c6-f5ad2337d5b1"}]},"request":{"method":"PUT","url":"Coverage/1f42c0f5-90ad-4c63-8ccb-321f696c9946"}},{"fullUrl":"https://madie.cms.gov/Condition/6034028f3d5f550000fb97d4","resource":{"resourceType":"Condition","id":"276eadbe-4758-4ea0-9b2a-2c23bda61c69","meta":{"profile":["http://hl7.org/fhir/us/qicore/StructureDefinition/qicore-condition"]},"clinicalStatus":{"coding":[{"system":"http://terminology.hl7.org/CodeSystem/condition-clinical","code":"active"}]},"verificationStatus":{"coding":[{"system":"http://terminology.hl7.org/CodeSystem/condition-ver-status","code":"confirmed"}]},"category":[{"coding":[{"system":"http://terminology.hl7.org/CodeSystem/condition-category","code":"problem-list-item","display":"Problem List Item"}]}],"code":{"coding":[{"system":"http://snomed.info/sct","code":"1001000119102"}]},"subject":{"reference":"Patient/0190ef4b-c22d-4177-b293-874f1a9030a6"},"onsetPeriod":{"start":"2025-09-02T09:00:00+00:00","end":"2025-09-02T10:00:00+00:00"}},"request":{"method":"PUT","url":"Condition/276eadbe-4758-4ea0-9b2a-2c23bda61c69"}},{"fullUrl":"https://madie.cms.gov/Organization/123456","resource":{"resourceType":"Organization","id":"4b5a882f-1f43-485c-85c6-f5ad2337d5b1","meta":{"profile":["http://hl7.org/fhir/us/qicore/StructureDefinition/qicore-organization"]},"identifier":[{"use":"temp","system":"urn:oid:2.16.840.1.113883.4.4","value":"21-3259825"}],"active":true,"type":[{"coding":[{"system":"http://terminology.hl7.org/CodeSystem/organization-type","code":"pay","display":"Payer"}]}],"name":"Blue Cross Blue Shield of Texas","telecom":[{"system":"phone","value":"(+1) 972-766-6900"}],"address":[{"use":"billing","type":"postal","line":["P.O. Box 660044"],"city":"Dallas","state":"TX","postalCode":"75266-0044","country":"USA"}]},"request":{"method":"PUT","url":"Organization/4b5a882f-1f43-485c-85c6-f5ad2337d5b1"}},{"fullUrl":"https://madie.cms.gov/Practitioner/practitioner-123456","resource":{"resourceType":"Practitioner","id":"8434d17b-355a-4e8a-b7eb-ceb0fe882394","identifier":[{"system":"http://hl7.org/fhir/sid/us-npi","value":"123456"}],"name":[{"family":"Evil","prefix":["Dr"]}]},"request":{"method":"PUT","url":"Practitioner/8434d17b-355a-4e8a-b7eb-ceb0fe882394"}},{"fullUrl":"https://madie.cms.gov/MeasureReport/48942056-44b8-4c42-8117-62baf9236fd8","resource":{"resourceType":"MeasureReport","id":"48942056-44b8-4c42-8117-62baf9236fd8","meta":{"profile":["http://hl7.org/fhir/us/cqfmeasures/StructureDefinition/test-case-cqfm"]},"contained":[{"resourceType":"Parameters","id":"4222ea0f-a001-4be5-8c46-a666aa8ecf73-parameters","parameter":[{"name":"subject","valueString":"0190ef4b-c22d-4177-b293-874f1a9030a6"}]}],"extension":[{"url":"http://hl7.org/fhir/us/cqfmeasures/StructureDefinition/cqfm-inputParameters","valueReference":{"reference":"#4222ea0f-a001-4be5-8c46-a666aa8ecf73-parameters"}},{"url":"http://hl7.org/fhir/us/cqfmeasures/StructureDefinition/cqfm-testCaseDescription","valueMarkdown":"DxVTE in the ED but ED.end > 1:59 min before Inp.start\n"}],"modifierExtension":[{"url":"http://hl7.org/fhir/us/cqfmeasures/StructureDefinition/cqfm-isTestCase","valueBoolean":true}],"status":"complete","type":"individual","measure":"https://madie.cms.gov/Measure/VenousThromboembolismProphylaxisFHIR","period":{"start":"2025-01-01","end":"2025-12-31"},"group":[{"population":[{"code":{"coding":[{"system":"http://terminology.hl7.org/CodeSystem/measure-population","code":"initial-population","display":"Initial Population"}]},"count":1},{"code":{"coding":[{"system":"http://terminology.hl7.org/CodeSystem/measure-population","code":"denominator","display":"Denominator"}]},"count":1},{"code":{"coding":[{"system":"http://terminology.hl7.org/CodeSystem/measure-population","code":"denominator-exclusion","display":"Denominator Exclusion"}]},"count":0},{"code":{"coding":[{"system":"http://terminology.hl7.org/CodeSystem/measure-population","code":"numerator","display":"Numerator"}]},"count":0}]}]},"request":{"method":"PUT","url":"MeasureReport/48942056-44b8-4c42-8117-62baf9236fd8"}}]}