{"resourceType":"Bundle","id":"tests-29bd19cc-e5fc-431b-b308-ce5f816533d3-bundle","type":"transaction","entry":[{"fullUrl":"https://madie.cms.gov/Patient/29bd19cc-e5fc-431b-b308-ce5f816533d3","resource":{"resourceType":"Patient","id":"29bd19cc-e5fc-431b-b308-ce5f816533d3","meta":{"profile":["http://hl7.org/fhir/us/qicore/StructureDefinition/qicore-patient"]},"text":{"status":"generated","div":"<div xmlns=\"http://www.w3.org/1999/xhtml\"><div class=\"hapiHeaderText\">RixDuringOBS_OBSGT1hr <b>NUMERFAIL </b></div><table class=\"hapiPropertyTable\"><tbody><tr><td>Identifier</td><td>9ac41bff10ef3353d0742df1f73dc984</td></tr><tr><td>Date of birth</td><td><span>02 January 1974</span></td></tr></tbody></table></div>"},"extension":[{"url":"http://hl7.org/fhir/us/core/StructureDefinition/us-core-race","extension":[{"url":"ombCategory","valueCoding":{"system":"urn:oid:2.16.840.1.113883.6.238","code":"1002-5","display":"American Indian or Alaska Native","userSelected":true}},{"url":"text","valueString":"American Indian or Alaska Native"}]},{"url":"http://hl7.org/fhir/us/core/StructureDefinition/us-core-ethnicity","extension":[{"url":"ombCategory","valueCoding":{"system":"urn:oid:2.16.840.1.113883.6.238","code":"2135-2","display":"Hispanic or Latino","userSelected":true}},{"url":"text","valueString":"Hispanic or Latino"}]}],"identifier":[{"type":{"coding":[{"system":"http://terminology.hl7.org/CodeSystem/v2-0203","code":"MR"}]},"system":"https://bonnie-fhir.healthit.gov/","value":"612e6b1302c62a011f2ec527"}],"active":true,"name":[{"use":"usual","family":"NUMERFail","given":["RixDuringOBS_OBSGT1hr"]}],"gender":"male","birthDate":"1974-01-02"},"request":{"method":"PUT","url":"Patient/29bd19cc-e5fc-431b-b308-ce5f816533d3"}},{"fullUrl":"https://madie.cms.gov/Encounter/5ca6295db8484628b8de1d66","resource":{"resourceType":"Encounter","id":"b702af17-5fbe-4e03-bb5c-5ae302a79df2","meta":{"profile":["http://hl7.org/fhir/us/qicore/StructureDefinition/qicore-encounter"]},"status":"finished","class":{"system":"http://terminology.hl7.org/CodeSystem/v3-ActCode","code":"IMP","display":"inpatient encounter"},"type":[{"coding":[{"system":"http://snomed.info/sct","code":"8715000"}]}],"subject":{"reference":"Patient/29bd19cc-e5fc-431b-b308-ce5f816533d3"},"period":{"start":"2025-11-01T08:00:00+00:00","end":"2025-11-26T08:15:00+00:00"},"length":{"value":25.0,"unit":"days"}},"request":{"method":"PUT","url":"Encounter/b702af17-5fbe-4e03-bb5c-5ae302a79df2"}},{"fullUrl":"https://madie.cms.gov/Encounter/5e21d43bf9757500009eda17","resource":{"resourceType":"Encounter","id":"05262646-008f-4f6f-8dd3-44ca2a94829a","meta":{"profile":["http://hl7.org/fhir/us/qicore/StructureDefinition/qicore-encounter"]},"status":"finished","class":{"system":"http://terminology.hl7.org/CodeSystem/v3-ActCode","code":"EMER","display":"emergency"},"type":[{"coding":[{"system":"http://snomed.info/sct","code":"4525004"}]}],"subject":{"reference":"Patient/29bd19cc-e5fc-431b-b308-ce5f816533d3"},"period":{"start":"2025-10-31T20:00:00+00:00","end":"2025-10-31T20:00:00+00:00"}},"request":{"method":"PUT","url":"Encounter/05262646-008f-4f6f-8dd3-44ca2a94829a"}},{"fullUrl":"https://madie.cms.gov/Encounter/5fb47d752569bf0000ce46b6","resource":{"resourceType":"Encounter","id":"5416de8a-a049-4170-b92e-3e41bc282cba","meta":{"profile":["http://hl7.org/fhir/us/qicore/StructureDefinition/qicore-encounter"]},"status":"finished","class":{"system":"http://terminology.hl7.org/CodeSystem/v3-ActCode","code":"OBSENC","display":"observation encounter"},"type":[{"coding":[{"system":"http://snomed.info/sct","code":"448951000124107"}]}],"subject":{"reference":"Patient/29bd19cc-e5fc-431b-b308-ce5f816533d3"},"period":{"start":"2025-10-31T20:00:00+00:00","end":"2025-11-01T05:00:00+00:00"}},"request":{"method":"PUT","url":"Encounter/5416de8a-a049-4170-b92e-3e41bc282cba"}},{"fullUrl":"https://madie.cms.gov/Coverage/5fa041681c76ba66d9959397","resource":{"resourceType":"Coverage","id":"b0619fdb-c3bd-4609-a379-8889ea4cc0d9","status":"active","beneficiary":{"reference":"Patient/29bd19cc-e5fc-431b-b308-ce5f816533d3"},"period":{"start":"1974-01-02T08:00:00+00:00"},"payor":[{"reference":"Organization/4b5a882f-1f43-485c-85c6-f5ad2337d5b1"}]},"request":{"method":"PUT","url":"Coverage/b0619fdb-c3bd-4609-a379-8889ea4cc0d9"}},{"fullUrl":"https://madie.cms.gov/MedicationAdministration/5fb47d1c2569bf0000ce4668","resource":{"resourceType":"MedicationAdministration","id":"9439842a-bd7e-41c8-a98c-d69d07b01e39","status":"completed","medicationCodeableConcept":{"coding":[{"system":"http://www.nlm.nih.gov/research/umls/rxnorm","code":"1114198"}]},"subject":{"reference":"Patient/29bd19cc-e5fc-431b-b308-ce5f816533d3"},"effectivePeriod":{"start":"2025-10-31T09:00:00+00:00","end":"2025-10-31T09:15:00+00:00"}},"request":{"method":"PUT","url":"MedicationAdministration/9439842a-bd7e-41c8-a98c-d69d07b01e39"}},{"fullUrl":"https://madie.cms.gov/Organization/123456","resource":{"resourceType":"Organization","id":"4b5a882f-1f43-485c-85c6-f5ad2337d5b1","meta":{"profile":["http://hl7.org/fhir/us/qicore/StructureDefinition/qicore-organization"]},"identifier":[{"use":"temp","system":"urn:oid:2.16.840.1.113883.4.4","value":"21-3259825"}],"active":true,"type":[{"coding":[{"system":"http://terminology.hl7.org/CodeSystem/organization-type","code":"pay","display":"Payer"}]}],"name":"Blue Cross Blue Shield of Texas","telecom":[{"system":"phone","value":"(+1) 972-766-6900"}],"address":[{"use":"billing","type":"postal","line":["P.O. Box 660044"],"city":"Dallas","state":"TX","postalCode":"75266-0044","country":"USA"}]},"request":{"method":"PUT","url":"Organization/4b5a882f-1f43-485c-85c6-f5ad2337d5b1"}},{"fullUrl":"https://madie.cms.gov/Practitioner/practitioner-123456","resource":{"resourceType":"Practitioner","id":"970e32d9-f332-467f-a682-d830d870bd3b","identifier":[{"system":"http://hl7.org/fhir/sid/us-npi","value":"123456"}],"name":[{"family":"Evil","prefix":["Dr"]}]},"request":{"method":"PUT","url":"Practitioner/970e32d9-f332-467f-a682-d830d870bd3b"}},{"fullUrl":"https://madie.cms.gov/MeasureReport/0090d2f4-e5a2-4a95-849c-6ad9668112c7","resource":{"resourceType":"MeasureReport","id":"0090d2f4-e5a2-4a95-849c-6ad9668112c7","meta":{"profile":["http://hl7.org/fhir/us/cqfmeasures/StructureDefinition/test-case-cqfm"]},"contained":[{"resourceType":"Parameters","id":"c9f7e9cb-1b03-4454-b0ef-cff569262b57-parameters","parameter":[{"name":"subject","valueString":"29bd19cc-e5fc-431b-b308-ce5f816533d3"}]}],"extension":[{"url":"http://hl7.org/fhir/us/cqfmeasures/StructureDefinition/cqfm-inputParameters","valueReference":{"reference":"#c9f7e9cb-1b03-4454-b0ef-cff569262b57-parameters"}},{"url":"http://hl7.org/fhir/us/cqfmeasures/StructureDefinition/cqfm-testCaseDescription","valueMarkdown":"Rivaroxaban for VTE Prophylaxis Med Administered during OBS which ends >1 hr before adm and ED = 1 hr ends OBS\n"}],"modifierExtension":[{"url":"http://hl7.org/fhir/us/cqfmeasures/StructureDefinition/cqfm-isTestCase","valueBoolean":true}],"status":"complete","type":"individual","measure":"https://madie.cms.gov/Measure/VenousThromboembolismProphylaxisFHIR","period":{"start":"2025-01-01","end":"2025-12-31"},"group":[{"population":[{"code":{"coding":[{"system":"http://terminology.hl7.org/CodeSystem/measure-population","code":"initial-population","display":"Initial Population"}]},"count":1},{"code":{"coding":[{"system":"http://terminology.hl7.org/CodeSystem/measure-population","code":"denominator","display":"Denominator"}]},"count":1},{"code":{"coding":[{"system":"http://terminology.hl7.org/CodeSystem/measure-population","code":"denominator-exclusion","display":"Denominator Exclusion"}]},"count":0},{"code":{"coding":[{"system":"http://terminology.hl7.org/CodeSystem/measure-population","code":"numerator","display":"Numerator"}]},"count":0}]}]},"request":{"method":"PUT","url":"MeasureReport/0090d2f4-e5a2-4a95-849c-6ad9668112c7"}}]}