{"resourceType":"Bundle","id":"tests-1cc5371c-a4d4-4912-a9be-76d2b31e1edd-bundle","type":"transaction","entry":[{"fullUrl":"https://madie.cms.gov/Patient/1cc5371c-a4d4-4912-a9be-76d2b31e1edd","resource":{"resourceType":"Patient","id":"1cc5371c-a4d4-4912-a9be-76d2b31e1edd","meta":{"profile":["http://hl7.org/fhir/us/qicore/StructureDefinition/qicore-patient"]},"text":{"status":"generated","div":"<div xmlns=\"http://www.w3.org/1999/xhtml\"><div class=\"hapiHeaderText\">VTE_RiskAssess_ED <b>NUMERPASS </b></div><table class=\"hapiPropertyTable\"><tbody><tr><td>Identifier</td><td>a29965ceec8340c6fb3a5567ca0595ba</td></tr><tr><td>Date of birth</td><td><span>02 January 1974</span></td></tr></tbody></table></div>"},"extension":[{"url":"http://hl7.org/fhir/us/core/StructureDefinition/us-core-race","extension":[{"url":"ombCategory","valueCoding":{"system":"urn:oid:2.16.840.1.113883.6.238","code":"1002-5","display":"American Indian or Alaska Native","userSelected":true}},{"url":"text","valueString":"American Indian or Alaska Native"}]},{"url":"http://hl7.org/fhir/us/core/StructureDefinition/us-core-ethnicity","extension":[{"url":"ombCategory","valueCoding":{"system":"urn:oid:2.16.840.1.113883.6.238","code":"2135-2","display":"Hispanic or Latino","userSelected":true}},{"url":"text","valueString":"Hispanic or Latino"}]}],"identifier":[{"type":{"coding":[{"system":"http://terminology.hl7.org/CodeSystem/v2-0203","code":"MR"}]},"system":"https://bonnie-fhir.healthit.gov/","value":"612e6b5a02c62a011f2ed71d"}],"active":true,"name":[{"use":"usual","family":"NUMERPass","given":["VTE_RiskAssess_ED"]}],"gender":"male","birthDate":"1974-01-02"},"request":{"method":"PUT","url":"Patient/1cc5371c-a4d4-4912-a9be-76d2b31e1edd"}},{"fullUrl":"https://madie.cms.gov/Encounter/5ca62964b8484628b8de1f40","resource":{"resourceType":"Encounter","id":"5ca62964b8484628b8de1f40","meta":{"profile":["http://hl7.org/fhir/us/qicore/StructureDefinition/qicore-encounter"]},"status":"finished","class":{"system":"http://terminology.hl7.org/CodeSystem/v3-ActCode","code":"EMER","display":"emergency"},"type":[{"coding":[{"system":"http://snomed.info/sct","code":"4525004"}]}],"subject":{"reference":"Patient/1cc5371c-a4d4-4912-a9be-76d2b31e1edd"},"period":{"start":"2025-10-31T23:00:00+00:00","end":"2025-11-01T07:15:00+00:00"},"length":{"value":1.0,"unit":"days"}},"request":{"method":"PUT","url":"Encounter/5ca62964b8484628b8de1f40"}},{"fullUrl":"https://madie.cms.gov/Encounter/5ca62964b8484628b8de1f41","resource":{"resourceType":"Encounter","id":"5ca62964b8484628b8de1f41","meta":{"profile":["http://hl7.org/fhir/us/qicore/StructureDefinition/qicore-encounter"]},"status":"finished","class":{"system":"http://terminology.hl7.org/CodeSystem/v3-ActCode","code":"IMP","display":"inpatient encounter"},"type":[{"coding":[{"system":"http://snomed.info/sct","code":"8715000"}]}],"subject":{"reference":"Patient/1cc5371c-a4d4-4912-a9be-76d2b31e1edd"},"period":{"start":"2025-11-01T08:00:00+00:00","end":"2025-11-26T08:15:00+00:00"},"length":{"value":25.0,"unit":"days"}},"request":{"method":"PUT","url":"Encounter/5ca62964b8484628b8de1f41"}},{"fullUrl":"https://madie.cms.gov/Observation/5ca62964b8484628b8de1f42","resource":{"resourceType":"Observation","id":"5ca62964b8484628b8de1f42","meta":{"profile":["http://hl7.org/fhir/us/qicore/StructureDefinition/qicore-observation"]},"status":"corrected","category":[{"coding":[{"system":"http://terminology.hl7.org/CodeSystem/observation-category","code":"exam","display":"exam"}]}],"code":{"coding":[{"system":"http://loinc.org","code":"72136-5"}]},"subject":{"reference":"Patient/1cc5371c-a4d4-4912-a9be-76d2b31e1edd"},"effectiveDateTime":"2025-11-01T06:00:00+00:00","valueCodeableConcept":{"coding":[{"system":"http://snomed.info/sct","code":"260362008","display":"Low Risk"}]}},"request":{"method":"PUT","url":"Observation/5ca62964b8484628b8de1f42"}},{"fullUrl":"https://madie.cms.gov/Coverage/5fa0415a1c76ba66d99592a1","resource":{"resourceType":"Coverage","id":"5fa0415a1c76ba66d99592a1","status":"active","beneficiary":{"reference":"Patient/1cc5371c-a4d4-4912-a9be-76d2b31e1edd"},"period":{"start":"1974-01-02T08:00:00+00:00"},"payor":[{"reference":"Organization/Org-123456"}]},"request":{"method":"PUT","url":"Coverage/5fa0415a1c76ba66d99592a1"}},{"fullUrl":"https://madie.cms.gov/Organization/123456","resource":{"resourceType":"Organization","id":"Org-123456","meta":{"profile":["http://hl7.org/fhir/us/qicore/StructureDefinition/qicore-organization"]},"identifier":[{"use":"temp","system":"urn:oid:2.16.840.1.113883.4.4","value":"21-3259825"}],"active":true,"type":[{"coding":[{"system":"http://terminology.hl7.org/CodeSystem/organization-type","code":"pay","display":"Payer"}]}],"name":"Blue Cross Blue Shield of Texas","telecom":[{"system":"phone","value":"(+1) 972-766-6900"}],"address":[{"use":"billing","type":"postal","line":["P.O. Box 660044"],"city":"Dallas","state":"TX","postalCode":"75266-0044","country":"USA"}]},"request":{"method":"PUT","url":"Organization/Org-123456"}},{"fullUrl":"https://madie.cms.gov/Practitioner/practitioner-123456","resource":{"resourceType":"Practitioner","id":"practitioner-123456","identifier":[{"system":"http://hl7.org/fhir/sid/us-npi","value":"123456"}],"name":[{"family":"Evil","prefix":["Dr"]}]},"request":{"method":"PUT","url":"Practitioner/practitioner-123456"}},{"fullUrl":"https://madie.cms.gov/MeasureReport/b357f5e8-19b1-45dd-9cec-6f442ca5f7dd","resource":{"resourceType":"MeasureReport","id":"b357f5e8-19b1-45dd-9cec-6f442ca5f7dd","meta":{"profile":["http://hl7.org/fhir/us/cqfmeasures/StructureDefinition/test-case-cqfm"]},"contained":[{"resourceType":"Parameters","id":"45227cf2-44b7-458f-a5e9-ada98eb216f7-parameters","parameter":[{"name":"subject","valueString":"1cc5371c-a4d4-4912-a9be-76d2b31e1edd"}]}],"extension":[{"url":"http://hl7.org/fhir/us/cqfmeasures/StructureDefinition/cqfm-inputParameters","valueReference":{"reference":"#45227cf2-44b7-458f-a5e9-ada98eb216f7-parameters"}},{"url":"http://hl7.org/fhir/us/cqfmeasures/StructureDefinition/cqfm-testCaseDescription","valueMarkdown":">18, LOS<120 day, VTE Risk Assess during ED\n"}],"modifierExtension":[{"url":"http://hl7.org/fhir/us/cqfmeasures/StructureDefinition/cqfm-isTestCase","valueBoolean":true}],"status":"complete","type":"individual","measure":"https://madie.cms.gov/Measure/VenousThromboembolismProphylaxisFHIR","period":{"start":"2025-01-01","end":"2025-12-31"},"group":[{"population":[{"code":{"coding":[{"system":"http://terminology.hl7.org/CodeSystem/measure-population","code":"initial-population","display":"Initial Population"}]},"count":1},{"code":{"coding":[{"system":"http://terminology.hl7.org/CodeSystem/measure-population","code":"denominator","display":"Denominator"}]},"count":1},{"code":{"coding":[{"system":"http://terminology.hl7.org/CodeSystem/measure-population","code":"denominator-exclusion","display":"Denominator Exclusion"}]},"count":0},{"code":{"coding":[{"system":"http://terminology.hl7.org/CodeSystem/measure-population","code":"numerator","display":"Numerator"}]},"count":1}]}],"evaluatedResource":[{"reference":"Patient/1cc5371c-a4d4-4912-a9be-76d2b31e1edd"},{"reference":"Encounter/5ca62964b8484628b8de1f40"},{"reference":"Encounter/5ca62964b8484628b8de1f41"},{"reference":"Observation/5ca62964b8484628b8de1f42"},{"reference":"Coverage/5fa0415a1c76ba66d99592a1"},{"reference":"Organization/Org-123456"},{"reference":"Practitioner/practitioner-123456"}]},"request":{"method":"PUT","url":"MeasureReport/b357f5e8-19b1-45dd-9cec-6f442ca5f7dd"}}]}