{"resourceType":"Bundle","id":"tests-d8c5ec26-7d98-4461-899e-edfcfed7b058-bundle","type":"transaction","entry":[{"fullUrl":"https://madie.cms.gov/Patient/d8c5ec26-7d98-4461-899e-edfcfed7b058","resource":{"resourceType":"Patient","id":"d8c5ec26-7d98-4461-899e-edfcfed7b058","meta":{"profile":["http://hl7.org/fhir/us/qicore/StructureDefinition/qicore-patient"]},"text":{"status":"generated","div":"<div xmlns=\"http://www.w3.org/1999/xhtml\"><div class=\"hapiHeaderText\">MedReason_MO_LDUHep_DO_VFP_IPEnc <b>NUMERPASS </b></div><table class=\"hapiPropertyTable\"><tbody><tr><td>Identifier</td><td>cdd1ec13b77c1be95c04b9f3b51d6649</td></tr><tr><td>Date of birth</td><td><span>02 January 1974</span></td></tr></tbody></table></div>"},"extension":[{"url":"http://hl7.org/fhir/us/core/StructureDefinition/us-core-race","extension":[{"url":"ombCategory","valueCoding":{"system":"urn:oid:2.16.840.1.113883.6.238","code":"1002-5","display":"American Indian or Alaska Native","userSelected":true}},{"url":"text","valueString":"American Indian or Alaska Native"}]},{"url":"http://hl7.org/fhir/us/core/StructureDefinition/us-core-ethnicity","extension":[{"url":"ombCategory","valueCoding":{"system":"urn:oid:2.16.840.1.113883.6.238","code":"2135-2","display":"Hispanic or Latino","userSelected":true}},{"url":"text","valueString":"Hispanic or Latino"}]}],"identifier":[{"type":{"coding":[{"system":"http://terminology.hl7.org/CodeSystem/v2-0203","code":"MR"}]},"system":"https://bonnie-fhir.healthit.gov/","value":"612e6a8402c62a011f2ea3c7"}],"active":true,"name":[{"use":"usual","family":"NUMERPass","given":["MedReason_MO_LDUHep_DO_VFP_IPEnc"]}],"gender":"male","birthDate":"1974-01-02"},"request":{"method":"PUT","url":"Patient/d8c5ec26-7d98-4461-899e-edfcfed7b058"}},{"fullUrl":"https://madie.cms.gov/Encounter/5ca6295fb8484628b8de1da8","resource":{"resourceType":"Encounter","id":"cf71ea7f-ff0b-4ec5-aa28-5d27407a7853","meta":{"profile":["http://hl7.org/fhir/us/qicore/StructureDefinition/qicore-encounter"]},"status":"finished","class":{"system":"http://terminology.hl7.org/CodeSystem/v3-ActCode","code":"IMP","display":"inpatient encounter"},"type":[{"coding":[{"system":"http://snomed.info/sct","code":"8715000"}]}],"subject":{"reference":"Patient/d8c5ec26-7d98-4461-899e-edfcfed7b058"},"period":{"start":"2025-11-01T08:00:00+00:00","end":"2025-11-26T08:15:00+00:00"},"length":{"value":25.0,"unit":"days"}},"request":{"method":"PUT","url":"Encounter/cf71ea7f-ff0b-4ec5-aa28-5d27407a7853"}},{"fullUrl":"https://madie.cms.gov/Coverage/5fa0414e1c76ba66d99591cf","resource":{"resourceType":"Coverage","id":"d31c967a-4086-4160-9a39-0e7f6b7202d2","status":"active","beneficiary":{"reference":"Patient/d8c5ec26-7d98-4461-899e-edfcfed7b058"},"period":{"start":"1974-01-02T08:00:00+00:00"},"payor":[{"reference":"Organization/77e4d06f-5e3c-436a-a598-80cefcca5028"}]},"request":{"method":"PUT","url":"Coverage/d31c967a-4086-4160-9a39-0e7f6b7202d2"}},{"fullUrl":"https://madie.cms.gov/MedicationRequest/5ca6295fb8484628b8de1daa","resource":{"resourceType":"MedicationRequest","id":"73070ec0-1b3d-4ca4-9f61-c474d22e8351","meta":{"profile":["http://hl7.org/fhir/us/qicore/StructureDefinition/qicore-mednotrequested"]},"status":"completed","intent":"order","category":[{"coding":[{"system":"http://terminology.hl7.org/CodeSystem/medicationrequest-category","code":"community"}]}],"doNotPerform":true,"medicationCodeableConcept":{"coding":[{"system":"http://www.nlm.nih.gov/research/umls/rxnorm","code":"1361574"}]},"subject":{"reference":"Patient/d8c5ec26-7d98-4461-899e-edfcfed7b058"},"authoredOn":"2025-11-01T09:00:00+00:00","requester":{"reference":"Practitioner/example"},"reasonCode":[{"coding":[{"system":"http://snomed.info/sct","code":"183932001","display":"Procedure contraindicated (situation)","userSelected":true}]}],"dosageInstruction":[{"timing":{"repeat":{"boundsPeriod":{"start":"2025-11-01T09:00:00+00:00"}}}}]},"request":{"method":"PUT","url":"MedicationRequest/73070ec0-1b3d-4ca4-9f61-c474d22e8351"}},{"fullUrl":"https://madie.cms.gov/ServiceRequest/venous-foot-pumps-vfp-8a30","resource":{"resourceType":"ServiceRequest","id":"8a0c250f-08e9-48b7-8544-4e08cdc7a347","meta":{"profile":["http://hl7.org/fhir/us/qicore/StructureDefinition/qicore-servicenotrequested"]},"extension":[{"url":"http://hl7.org/fhir/us/qicore/StructureDefinition/qicore-doNotPerformReason","valueCodeableConcept":{"coding":[{"system":"http://snomed.info/sct","code":"183932001","display":"Procedure contraindicated (situation)"}]}}],"status":"completed","intent":"order","doNotPerform":true,"code":{"coding":[{"system":"http://snomed.info/sct","version":"2025-03","code":"442023007","display":"Venous foot pump, device (physical object)","userSelected":true}]},"subject":{"reference":"Patient/d8c5ec26-7d98-4461-899e-edfcfed7b058"},"authoredOn":"2025-11-01T09:00:00+00:00"},"request":{"method":"PUT","url":"ServiceRequest/8a0c250f-08e9-48b7-8544-4e08cdc7a347"}},{"fullUrl":"https://madie.cms.gov/Organization/123456","resource":{"resourceType":"Organization","id":"77e4d06f-5e3c-436a-a598-80cefcca5028","meta":{"profile":["http://hl7.org/fhir/us/qicore/StructureDefinition/qicore-organization"]},"identifier":[{"use":"temp","system":"urn:oid:2.16.840.1.113883.4.4","value":"21-3259825"}],"active":true,"type":[{"coding":[{"system":"http://terminology.hl7.org/CodeSystem/organization-type","code":"pay","display":"Payer"}]}],"name":"Blue Cross Blue Shield of Texas","telecom":[{"system":"phone","value":"(+1) 972-766-6900"}],"address":[{"use":"billing","type":"postal","line":["P.O. Box 660044"],"city":"Dallas","state":"TX","postalCode":"75266-0044","country":"USA"}]},"request":{"method":"PUT","url":"Organization/77e4d06f-5e3c-436a-a598-80cefcca5028"}},{"fullUrl":"https://madie.cms.gov/Practitioner/practitioner-123456","resource":{"resourceType":"Practitioner","id":"2b6bbe60-16c2-4789-84c3-0c081b7b41bf","identifier":[{"system":"http://hl7.org/fhir/sid/us-npi","value":"123456"}],"name":[{"family":"Evil","prefix":["Dr"]}]},"request":{"method":"PUT","url":"Practitioner/2b6bbe60-16c2-4789-84c3-0c081b7b41bf"}},{"fullUrl":"https://madie.cms.gov/MeasureReport/d54c1feb-967e-4558-972d-c78bd03475d0","resource":{"resourceType":"MeasureReport","id":"d54c1feb-967e-4558-972d-c78bd03475d0","meta":{"profile":["http://hl7.org/fhir/us/cqfmeasures/StructureDefinition/test-case-cqfm"]},"contained":[{"resourceType":"Parameters","id":"c2582af5-9203-4c4c-9902-aa6668a625a7-parameters","parameter":[{"name":"subject","valueString":"d8c5ec26-7d98-4461-899e-edfcfed7b058"}]}],"extension":[{"url":"http://hl7.org/fhir/us/cqfmeasures/StructureDefinition/cqfm-inputParameters","valueReference":{"reference":"#c2582af5-9203-4c4c-9902-aa6668a625a7-parameters"}},{"url":"http://hl7.org/fhir/us/cqfmeasures/StructureDefinition/cqfm-testCaseDescription","valueMarkdown":"venous foot pump not ordered and low dose unfractionated heparin not ordered due to  medical reason <= 1 day after start of IP encounter\n"}],"modifierExtension":[{"url":"http://hl7.org/fhir/us/cqfmeasures/StructureDefinition/cqfm-isTestCase","valueBoolean":true}],"status":"complete","type":"individual","measure":"https://madie.cms.gov/Measure/VenousThromboembolismProphylaxisFHIR","period":{"start":"2025-01-01","end":"2025-12-31"},"group":[{"population":[{"code":{"coding":[{"system":"http://terminology.hl7.org/CodeSystem/measure-population","code":"initial-population","display":"Initial Population"}]},"count":1},{"code":{"coding":[{"system":"http://terminology.hl7.org/CodeSystem/measure-population","code":"denominator","display":"Denominator"}]},"count":1},{"code":{"coding":[{"system":"http://terminology.hl7.org/CodeSystem/measure-population","code":"denominator-exclusion","display":"Denominator Exclusion"}]},"count":0},{"code":{"coding":[{"system":"http://terminology.hl7.org/CodeSystem/measure-population","code":"numerator","display":"Numerator"}]},"count":1}]}]},"request":{"method":"PUT","url":"MeasureReport/d54c1feb-967e-4558-972d-c78bd03475d0"}}]}