{"resourceType":"Bundle","id":"tests-8e2cfc29-0925-45b9-857f-b9ee9b9fa248-bundle","type":"transaction","entry":[{"fullUrl":"https://madie.cms.gov/Patient/8e2cfc29-0925-45b9-857f-b9ee9b9fa248","resource":{"resourceType":"Patient","id":"8e2cfc29-0925-45b9-857f-b9ee9b9fa248","meta":{"profile":["http://hl7.org/fhir/us/qicore/StructureDefinition/qicore-patient"]},"text":{"status":"generated","div":"<div xmlns=\"http://www.w3.org/1999/xhtml\"><div class=\"hapiHeaderText\">MedRsnMAWarfDAIPCDrgEDGT1hrSameDayAdm <b>NUMERPASS </b></div><table class=\"hapiPropertyTable\"><tbody><tr><td>Identifier</td><td>d5661b6a7ac7a6b9f13847d23af8475a</td></tr><tr><td>Date of birth</td><td><span>02 January 1974</span></td></tr></tbody></table></div>"},"extension":[{"url":"http://hl7.org/fhir/us/core/StructureDefinition/us-core-race","extension":[{"url":"ombCategory","valueCoding":{"system":"urn:oid:2.16.840.1.113883.6.238","code":"1002-5","display":"American Indian or Alaska Native","userSelected":true}},{"url":"text","valueString":"American Indian or Alaska Native"}]},{"url":"http://hl7.org/fhir/us/core/StructureDefinition/us-core-ethnicity","extension":[{"url":"ombCategory","valueCoding":{"system":"urn:oid:2.16.840.1.113883.6.238","code":"2135-2","display":"Hispanic or Latino","userSelected":true}},{"url":"text","valueString":"Hispanic or Latino"}]}],"identifier":[{"type":{"coding":[{"system":"http://terminology.hl7.org/CodeSystem/v2-0203","code":"MR"}]},"system":"https://bonnie-fhir.healthit.gov/","value":"612e6b8402c62a011f2ee1d9"}],"active":true,"name":[{"use":"usual","family":"NUMERPass","given":["MedRsnMAWarfDAIPCDrgEDGT1hrSameDayAdm"]}],"gender":"male","birthDate":"1974-01-02"},"request":{"method":"PUT","url":"Patient/8e2cfc29-0925-45b9-857f-b9ee9b9fa248"}},{"fullUrl":"https://madie.cms.gov/Encounter/5ca62961b8484628b8de1e81","resource":{"resourceType":"Encounter","id":"81f6bb28-59d3-43d5-8d48-cab39bd2b101","meta":{"profile":["http://hl7.org/fhir/us/qicore/StructureDefinition/qicore-encounter"]},"status":"finished","class":{"system":"http://terminology.hl7.org/CodeSystem/v3-ActCode","code":"EMER","display":"emergency"},"type":[{"coding":[{"system":"http://snomed.info/sct","code":"4525004"}]}],"subject":{"reference":"Patient/8e2cfc29-0925-45b9-857f-b9ee9b9fa248"},"period":{"start":"2025-10-31T04:00:00.000+00:00","end":"2025-11-01T07:15:00.000+00:00"},"length":{"value":1.0,"unit":"days"}},"request":{"method":"PUT","url":"Encounter/81f6bb28-59d3-43d5-8d48-cab39bd2b101"}},{"fullUrl":"https://madie.cms.gov/Encounter/5ca62961b8484628b8de1e82","resource":{"resourceType":"Encounter","id":"6faa74de-3b53-422e-ba71-1a3da63963c8","meta":{"profile":["http://hl7.org/fhir/us/qicore/StructureDefinition/qicore-encounter"]},"status":"finished","class":{"system":"http://terminology.hl7.org/CodeSystem/v3-ActCode","code":"IMP","display":"inpatient encounter"},"type":[{"coding":[{"system":"http://snomed.info/sct","code":"8715000"}]}],"subject":{"reference":"Patient/8e2cfc29-0925-45b9-857f-b9ee9b9fa248"},"period":{"start":"2025-11-01T10:00:00.000+00:00","end":"2025-11-04T05:00:00.000+00:00"},"length":{"value":25.0,"unit":"days"}},"request":{"method":"PUT","url":"Encounter/6faa74de-3b53-422e-ba71-1a3da63963c8"}},{"fullUrl":"https://madie.cms.gov/Coverage/5fa041591c76ba66d995928f","resource":{"resourceType":"Coverage","id":"24b9d379-b612-4c86-9a26-0457e054cf77","status":"active","beneficiary":{"reference":"Patient/8e2cfc29-0925-45b9-857f-b9ee9b9fa248"},"period":{"start":"1974-01-02T08:00:00+00:00"},"payor":[{"reference":"Organization/80573fa1-cf83-4e9a-8f21-86a018689678"}]},"request":{"method":"PUT","url":"Coverage/24b9d379-b612-4c86-9a26-0457e054cf77"}},{"fullUrl":"https://madie.cms.gov/Procedure/device-application-8a0a","resource":{"resourceType":"Procedure","id":"67fcc6bd-bc83-44f3-81c1-27101550aaca","meta":{"profile":["http://hl7.org/fhir/us/qicore/StructureDefinition/qicore-procedurenotdone"]},"extension":[{"url":"http://hl7.org/fhir/us/qicore/StructureDefinition/qicore-recorded","valueDateTime":"2025-11-01T06:35:00-04:00"}],"status":"not-done","statusReason":{"coding":[{"system":"http://snomed.info/sct","code":"183932001","display":"Procedure contraindicated (situation)","userSelected":true}]},"code":{"coding":[{"system":"http://snomed.info/sct","code":"443448006","display":"Application of intermittent pneumatic compression device (procedure)","userSelected":true}]},"subject":{"reference":"Patient/8e2cfc29-0925-45b9-857f-b9ee9b9fa248"},"_performedDateTime":{"extension":[{"url":"http://hl7.org/fhir/StructureDefinition/data-absent-reason","valueCode":"not-performed"}]}},"request":{"method":"PUT","url":"Procedure/67fcc6bd-bc83-44f3-81c1-27101550aaca"}},{"fullUrl":"https://madie.cms.gov/MedicationAdministration/warfarin-8a15","resource":{"resourceType":"MedicationAdministration","id":"33bd9c41-b96f-410e-b217-0d8b2f8bf9b0","meta":{"profile":["http://hl7.org/fhir/us/qicore/StructureDefinition/qicore-mednotadministered"]},"extension":[{"url":"http://hl7.org/fhir/us/qicore/StructureDefinition/qicore-recorded","valueDateTime":"2025-11-01T06:00:00+00:00"}],"status":"not-done","statusReason":[{"coding":[{"system":"http://snomed.info/sct","code":"183932001","display":"Procedure contraindicated (situation)","userSelected":true}]}],"medicationCodeableConcept":{"coding":[{"system":"http://www.nlm.nih.gov/research/umls/rxnorm","code":"855288"}]},"subject":{"reference":"Patient/8e2cfc29-0925-45b9-857f-b9ee9b9fa248"},"effectivePeriod":{"start":"2025-11-01T07:00:00+00:00"}},"request":{"method":"PUT","url":"MedicationAdministration/33bd9c41-b96f-410e-b217-0d8b2f8bf9b0"}},{"fullUrl":"https://madie.cms.gov/Organization/123456","resource":{"resourceType":"Organization","id":"80573fa1-cf83-4e9a-8f21-86a018689678","meta":{"profile":["http://hl7.org/fhir/us/qicore/StructureDefinition/qicore-organization"]},"identifier":[{"use":"temp","system":"urn:oid:2.16.840.1.113883.4.4","value":"21-3259825"}],"active":true,"type":[{"coding":[{"system":"http://terminology.hl7.org/CodeSystem/organization-type","code":"pay","display":"Payer"}]}],"name":"Blue Cross Blue Shield of Texas","telecom":[{"system":"phone","value":"(+1) 972-766-6900"}],"address":[{"use":"billing","type":"postal","line":["P.O. Box 660044"],"city":"Dallas","state":"TX","postalCode":"75266-0044","country":"USA"}]},"request":{"method":"PUT","url":"Organization/80573fa1-cf83-4e9a-8f21-86a018689678"}},{"fullUrl":"https://madie.cms.gov/Practitioner/practitioner-123456","resource":{"resourceType":"Practitioner","id":"33afa9a9-16c9-4117-9f9d-7806abe2316b","identifier":[{"system":"http://hl7.org/fhir/sid/us-npi","value":"123456"}],"name":[{"family":"Evil","prefix":["Dr"]}]},"request":{"method":"PUT","url":"Practitioner/33afa9a9-16c9-4117-9f9d-7806abe2316b"}},{"fullUrl":"https://madie.cms.gov/MeasureReport/bd75e423-42bf-4109-9a2f-cdd61be2ff06","resource":{"resourceType":"MeasureReport","id":"bd75e423-42bf-4109-9a2f-cdd61be2ff06","meta":{"profile":["http://hl7.org/fhir/us/cqfmeasures/StructureDefinition/test-case-cqfm"]},"contained":[{"resourceType":"Parameters","id":"4f54e4c3-4986-4c5d-9b4f-e59b1c78d352-parameters","parameter":[{"name":"subject","valueString":"8e2cfc29-0925-45b9-857f-b9ee9b9fa248"}]}],"extension":[{"url":"http://hl7.org/fhir/us/cqfmeasures/StructureDefinition/cqfm-inputParameters","valueReference":{"reference":"#4f54e4c3-4986-4c5d-9b4f-e59b1c78d352-parameters"}},{"url":"http://hl7.org/fhir/us/cqfmeasures/StructureDefinition/cqfm-testCaseDescription","valueMarkdown":"medical reasons for not receiving IPC devices and warfarin in ED but ED is 2 hour before Adm\n"}],"modifierExtension":[{"url":"http://hl7.org/fhir/us/cqfmeasures/StructureDefinition/cqfm-isTestCase","valueBoolean":true}],"status":"complete","type":"individual","measure":"https://madie.cms.gov/Measure/VenousThromboembolismProphylaxisFHIR","period":{"start":"2025-01-01","end":"2025-12-31"},"group":[{"population":[{"code":{"coding":[{"system":"http://terminology.hl7.org/CodeSystem/measure-population","code":"initial-population","display":"Initial Population"}]},"count":1},{"code":{"coding":[{"system":"http://terminology.hl7.org/CodeSystem/measure-population","code":"denominator","display":"Denominator"}]},"count":1},{"code":{"coding":[{"system":"http://terminology.hl7.org/CodeSystem/measure-population","code":"denominator-exclusion","display":"Denominator Exclusion"}]},"count":0},{"code":{"coding":[{"system":"http://terminology.hl7.org/CodeSystem/measure-population","code":"numerator","display":"Numerator"}]},"count":1}]}]},"request":{"method":"PUT","url":"MeasureReport/bd75e423-42bf-4109-9a2f-cdd61be2ff06"}}]}