{"resourceType":"Bundle","id":"tests-ccd7f9d7-35e8-4623-9f2e-f229cf7d829c-bundle","type":"transaction","entry":[{"fullUrl":"https://madie.cms.gov/Patient/ccd7f9d7-35e8-4623-9f2e-f229cf7d829c","resource":{"resourceType":"Patient","id":"ccd7f9d7-35e8-4623-9f2e-f229cf7d829c","meta":{"profile":["http://hl7.org/fhir/us/qicore/StructureDefinition/qicore-patient"]},"text":{"status":"generated","div":"<div xmlns=\"http://www.w3.org/1999/xhtml\"><div class=\"hapiHeaderText\">PtRef_DA_IPC_DuringOBS <b>NUMERPASS </b></div><table class=\"hapiPropertyTable\"><tbody><tr><td>Identifier</td><td>5f7ad5e9fc357bf072546722e2c19e60</td></tr><tr><td>Date of birth</td><td><span>02 January 1974</span></td></tr></tbody></table></div>"},"extension":[{"url":"http://hl7.org/fhir/us/core/StructureDefinition/us-core-race","extension":[{"url":"ombCategory","valueCoding":{"system":"urn:oid:2.16.840.1.113883.6.238","code":"1002-5","display":"American Indian or Alaska Native","userSelected":true}},{"url":"text","valueString":"American Indian or Alaska Native"}]},{"url":"http://hl7.org/fhir/us/core/StructureDefinition/us-core-ethnicity","extension":[{"url":"ombCategory","valueCoding":{"system":"urn:oid:2.16.840.1.113883.6.238","code":"2135-2","display":"Hispanic or Latino","userSelected":true}},{"url":"text","valueString":"Hispanic or Latino"}]}],"identifier":[{"type":{"coding":[{"system":"http://terminology.hl7.org/CodeSystem/v2-0203","code":"MR"}]},"system":"https://bonnie-fhir.healthit.gov/","value":"612e6ab302c62a011f2eafaf"}],"active":true,"name":[{"use":"usual","family":"NUMERPass","given":["PtRef_DA_IPC_DuringOBS"]}],"gender":"male","birthDate":"1974-01-02"},"request":{"method":"PUT","url":"Patient/ccd7f9d7-35e8-4623-9f2e-f229cf7d829c"}},{"fullUrl":"https://madie.cms.gov/Encounter/5ca62960b8484628b8de1e50","resource":{"resourceType":"Encounter","id":"436c1b4e-4ff7-4a22-a62a-08d7881a35e3","meta":{"profile":["http://hl7.org/fhir/us/qicore/StructureDefinition/qicore-encounter"]},"status":"finished","class":{"system":"http://terminology.hl7.org/CodeSystem/v3-ActCode","code":"OBSENC","display":"observation encounter"},"type":[{"coding":[{"system":"http://snomed.info/sct","code":"448951000124107"}]}],"subject":{"reference":"Patient/ccd7f9d7-35e8-4623-9f2e-f229cf7d829c"},"period":{"start":"2025-10-31T05:00:00+00:00","end":"2025-11-01T07:15:00+00:00"},"length":{"value":1,"unit":"days"}},"request":{"method":"PUT","url":"Encounter/436c1b4e-4ff7-4a22-a62a-08d7881a35e3"}},{"fullUrl":"https://madie.cms.gov/Encounter/5ca62960b8484628b8de1e51","resource":{"resourceType":"Encounter","id":"937d1427-a9cf-43e0-98f3-ee723ed80c03","meta":{"profile":["http://hl7.org/fhir/us/qicore/StructureDefinition/qicore-encounter"]},"status":"finished","class":{"system":"http://terminology.hl7.org/CodeSystem/v3-ActCode","code":"IMP","display":"inpatient encounter"},"type":[{"coding":[{"system":"http://snomed.info/sct","code":"8715000"}]}],"subject":{"reference":"Patient/ccd7f9d7-35e8-4623-9f2e-f229cf7d829c"},"period":{"start":"2025-11-01T08:00:00+00:00","end":"2025-11-26T08:15:00+00:00"},"length":{"value":25,"unit":"days"}},"request":{"method":"PUT","url":"Encounter/937d1427-a9cf-43e0-98f3-ee723ed80c03"}},{"fullUrl":"https://madie.cms.gov/Coverage/5fa041561c76ba66d9959259","resource":{"resourceType":"Coverage","id":"24cda780-00fe-4fa7-bcfe-eda6a05f8170","status":"active","beneficiary":{"reference":"Patient/ccd7f9d7-35e8-4623-9f2e-f229cf7d829c"},"period":{"start":"1974-01-02T08:00:00+00:00"},"payor":[{"reference":"Organization/4b5a882f-1f43-485c-85c6-f5ad2337d5b1"}]},"request":{"method":"PUT","url":"Coverage/24cda780-00fe-4fa7-bcfe-eda6a05f8170"}},{"fullUrl":"https://madie.cms.gov/Procedure/device-application-2c38","resource":{"resourceType":"Procedure","id":"01cafa3d-2e6b-4030-967d-1cd616d6c53b","meta":{"profile":["http://hl7.org/fhir/us/qicore/StructureDefinition/qicore-procedurenotdone"]},"extension":[{"url":"http://hl7.org/fhir/us/qicore/StructureDefinition/qicore-recorded","valueDateTime":"2025-10-31T17:35:00-04:00"}],"status":"not-done","statusReason":{"coding":[{"system":"http://snomed.info/sct","code":"443390004","display":"Refused (qualifier value)","userSelected":true}]},"code":{"coding":[{"system":"http://snomed.info/sct","version":"2025-03","code":"443448006","display":"Application of intermittent pneumatic compression device (procedure)","userSelected":true}]},"subject":{"reference":"Patient/ccd7f9d7-35e8-4623-9f2e-f229cf7d829c"},"_performedDateTime":{"extension":[{"url":"http://hl7.org/fhir/StructureDefinition/data-absent-reason","valueCode":"not-performed"}]}},"request":{"method":"PUT","url":"Procedure/01cafa3d-2e6b-4030-967d-1cd616d6c53b"}},{"fullUrl":"https://madie.cms.gov/Organization/123456","resource":{"resourceType":"Organization","id":"4b5a882f-1f43-485c-85c6-f5ad2337d5b1","meta":{"profile":["http://hl7.org/fhir/us/qicore/StructureDefinition/qicore-organization"]},"identifier":[{"use":"temp","system":"urn:oid:2.16.840.1.113883.4.4","value":"21-3259825"}],"active":true,"type":[{"coding":[{"system":"http://terminology.hl7.org/CodeSystem/organization-type","code":"pay","display":"Payer"}]}],"name":"Blue Cross Blue Shield of Texas","telecom":[{"system":"phone","value":"(+1) 972-766-6900"}],"address":[{"use":"billing","type":"postal","line":["P.O. Box 660044"],"city":"Dallas","state":"TX","postalCode":"75266-0044","country":"USA"}]},"request":{"method":"PUT","url":"Organization/4b5a882f-1f43-485c-85c6-f5ad2337d5b1"}},{"fullUrl":"https://madie.cms.gov/Practitioner/practitioner-123456","resource":{"resourceType":"Practitioner","id":"dfd8e892-8de1-4f8f-856b-14309093649b","identifier":[{"system":"http://hl7.org/fhir/sid/us-npi","value":"123456"}],"name":[{"family":"Evil","prefix":["Dr"]}]},"request":{"method":"PUT","url":"Practitioner/dfd8e892-8de1-4f8f-856b-14309093649b"}},{"fullUrl":"https://madie.cms.gov/MeasureReport/759ba046-398d-48f0-adc8-850552fddf77","resource":{"resourceType":"MeasureReport","id":"759ba046-398d-48f0-adc8-850552fddf77","meta":{"profile":["http://hl7.org/fhir/us/cqfmeasures/StructureDefinition/test-case-cqfm"]},"contained":[{"resourceType":"Parameters","id":"4e0ebcb3-077f-4eb7-b1c3-73952fa1583f-parameters","parameter":[{"name":"subject","valueString":"ccd7f9d7-35e8-4623-9f2e-f229cf7d829c"}]}],"extension":[{"url":"http://hl7.org/fhir/us/cqfmeasures/StructureDefinition/cqfm-inputParameters","valueReference":{"reference":"#4e0ebcb3-077f-4eb7-b1c3-73952fa1583f-parameters"}},{"url":"http://hl7.org/fhir/us/cqfmeasures/StructureDefinition/cqfm-testCaseDescription","valueMarkdown":"patient refused IPC in Observation service \n"}],"modifierExtension":[{"url":"http://hl7.org/fhir/us/cqfmeasures/StructureDefinition/cqfm-isTestCase","valueBoolean":true}],"status":"complete","type":"individual","measure":"https://madie.cms.gov/Measure/VenousThromboembolismProphylaxisFHIR","period":{"start":"2025-01-01","end":"2025-12-31"},"group":[{"population":[{"code":{"coding":[{"system":"http://terminology.hl7.org/CodeSystem/measure-population","code":"initial-population","display":"Initial Population"}]},"count":1},{"code":{"coding":[{"system":"http://terminology.hl7.org/CodeSystem/measure-population","code":"denominator","display":"Denominator"}]},"count":1},{"code":{"coding":[{"system":"http://terminology.hl7.org/CodeSystem/measure-population","code":"denominator-exclusion","display":"Denominator Exclusion"}]},"count":0},{"code":{"coding":[{"system":"http://terminology.hl7.org/CodeSystem/measure-population","code":"numerator","display":"Numerator"}]},"count":1}]}]},"request":{"method":"PUT","url":"MeasureReport/759ba046-398d-48f0-adc8-850552fddf77"}}]}