{"resourceType":"Bundle","id":"tests-92b4eee9-78aa-4f58-9ccf-750556dfa62c-bundle","type":"transaction","entry":[{"fullUrl":"https://madie.cms.gov/Patient/92b4eee9-78aa-4f58-9ccf-750556dfa62c","resource":{"resourceType":"Patient","id":"92b4eee9-78aa-4f58-9ccf-750556dfa62c","meta":{"profile":["http://hl7.org/fhir/us/qicore/StructureDefinition/qicore-patient"]},"text":{"status":"generated","div":"<div xmlns=\"http://www.w3.org/1999/xhtml\"><div class=\"hapiHeaderText\">EncDx=Obstetrics <b>IPPFAIL </b></div><table class=\"hapiPropertyTable\"><tbody><tr><td>Identifier</td><td>a822ec1a5dddc09a0f677a30161a3b30</td></tr><tr><td>Date of birth</td><td><span>02 January 1974</span></td></tr></tbody></table></div>"},"extension":[{"url":"http://hl7.org/fhir/us/core/StructureDefinition/us-core-race","extension":[{"url":"ombCategory","valueCoding":{"system":"urn:oid:2.16.840.1.113883.6.238","code":"1002-5","display":"American Indian or Alaska Native","userSelected":true}},{"url":"text","valueString":"American Indian or Alaska Native"}]},{"url":"http://hl7.org/fhir/us/core/StructureDefinition/us-core-ethnicity","extension":[{"url":"ombCategory","valueCoding":{"system":"urn:oid:2.16.840.1.113883.6.238","code":"2135-2","display":"Hispanic or Latino","userSelected":true}},{"url":"text","valueString":"Hispanic or Latino"}]}],"identifier":[{"type":{"coding":[{"system":"http://terminology.hl7.org/CodeSystem/v2-0203","code":"MR"}]},"system":"https://bonnie-fhir.healthit.gov/","value":"612e6a5202c62a011f2e9a04"}],"active":true,"name":[{"use":"usual","family":"IPPFail","given":["EncDxObstetrics"]}],"gender":"male","birthDate":"1974-01-02"},"request":{"method":"PUT","url":"Patient/92b4eee9-78aa-4f58-9ccf-750556dfa62c"}},{"fullUrl":"https://madie.cms.gov/Encounter/5ca6295cb8484628b8de1d22","resource":{"resourceType":"Encounter","id":"5ca6295cb8484628b8de1d22","meta":{"profile":["http://hl7.org/fhir/us/qicore/StructureDefinition/qicore-encounter"]},"status":"finished","class":{"system":"http://terminology.hl7.org/CodeSystem/v3-ActCode","code":"IMP","display":"inpatient encounter"},"type":[{"coding":[{"system":"http://snomed.info/sct","code":"8715000"}]}],"subject":{"reference":"Patient/92b4eee9-78aa-4f58-9ccf-750556dfa62c"},"period":{"start":"2025-11-01T08:00:00+00:00","end":"2025-11-26T08:15:00+00:00"},"length":{"value":25.0,"unit":"days"},"diagnosis":[{"condition":{"reference":"Condition/obstetrics-9e12"}}]},"request":{"method":"PUT","url":"Encounter/5ca6295cb8484628b8de1d22"}},{"fullUrl":"https://madie.cms.gov/Coverage/5fa041471c76ba66d9959154","resource":{"resourceType":"Coverage","id":"5fa041471c76ba66d9959154","status":"active","beneficiary":{"reference":"Patient/92b4eee9-78aa-4f58-9ccf-750556dfa62c"},"period":{"start":"1974-01-02T08:00:00+00:00"},"payor":[{"reference":"Organization/Org-123456"}]},"request":{"method":"PUT","url":"Coverage/5fa041471c76ba66d9959154"}},{"fullUrl":"https://madie.cms.gov/Condition/obstetrics-9e12","resource":{"resourceType":"Condition","id":"obstetrics-9e12","meta":{"profile":["http://hl7.org/fhir/us/qicore/StructureDefinition/qicore-condition"]},"category":[{"coding":[{"system":"http://terminology.hl7.org/CodeSystem/condition-category","code":"encounter-diagnosis","display":"Encounter Diagnosis"}]}],"code":{"coding":[{"system":"http://snomed.info/sct","version":"2025-03","code":"10217006","display":"Third degree perineal laceration (disorder)","userSelected":true}]},"subject":{"reference":"Patient/92b4eee9-78aa-4f58-9ccf-750556dfa62c"},"recordedDate":"2025-11-01T08:00:00.000+00:00"},"request":{"method":"PUT","url":"Condition/obstetrics-9e12"}},{"fullUrl":"https://madie.cms.gov/Organization/123456","resource":{"resourceType":"Organization","id":"Org-123456","meta":{"profile":["http://hl7.org/fhir/us/qicore/StructureDefinition/qicore-organization"]},"identifier":[{"use":"temp","system":"urn:oid:2.16.840.1.113883.4.4","value":"21-3259825"}],"active":true,"type":[{"coding":[{"system":"http://terminology.hl7.org/CodeSystem/organization-type","code":"pay","display":"Payer"}]}],"name":"Blue Cross Blue Shield of Texas","telecom":[{"system":"phone","value":"(+1) 972-766-6900"}],"address":[{"use":"billing","type":"postal","line":["P.O. Box 660044"],"city":"Dallas","state":"TX","postalCode":"75266-0044","country":"USA"}]},"request":{"method":"PUT","url":"Organization/Org-123456"}},{"fullUrl":"https://madie.cms.gov/Practitioner/practitioner-123456","resource":{"resourceType":"Practitioner","id":"practitioner-123456","identifier":[{"system":"http://hl7.org/fhir/sid/us-npi","value":"123456"}],"name":[{"family":"Evil","prefix":["Dr"]}]},"request":{"method":"PUT","url":"Practitioner/practitioner-123456"}},{"fullUrl":"https://madie.cms.gov/MeasureReport/bfd6394f-300f-41c2-8795-0fd16ef7536d","resource":{"resourceType":"MeasureReport","id":"bfd6394f-300f-41c2-8795-0fd16ef7536d","meta":{"profile":["http://hl7.org/fhir/us/cqfmeasures/StructureDefinition/test-case-cqfm"]},"contained":[{"resourceType":"Parameters","id":"8e9d6caa-621b-4245-a157-408fedab00b3-parameters","parameter":[{"name":"subject","valueString":"92b4eee9-78aa-4f58-9ccf-750556dfa62c"}]}],"extension":[{"url":"http://hl7.org/fhir/us/cqfmeasures/StructureDefinition/cqfm-inputParameters","valueReference":{"reference":"#8e9d6caa-621b-4245-a157-408fedab00b3-parameters"}},{"url":"http://hl7.org/fhir/us/cqfmeasures/StructureDefinition/cqfm-testCaseDescription","valueMarkdown":"Patient is > 18 years old, LOS < 120 days during MP with Obstetrics diagnosis\n"}],"modifierExtension":[{"url":"http://hl7.org/fhir/us/cqfmeasures/StructureDefinition/cqfm-isTestCase","valueBoolean":true}],"status":"complete","type":"individual","measure":"https://madie.cms.gov/Measure/VenousThromboembolismProphylaxisFHIR","period":{"start":"2025-01-01","end":"2025-12-31"},"group":[{"population":[{"code":{"coding":[{"system":"http://terminology.hl7.org/CodeSystem/measure-population","code":"initial-population","display":"Initial Population"}]},"count":0},{"code":{"coding":[{"system":"http://terminology.hl7.org/CodeSystem/measure-population","code":"denominator","display":"Denominator"}]},"count":0},{"code":{"coding":[{"system":"http://terminology.hl7.org/CodeSystem/measure-population","code":"denominator-exclusion","display":"Denominator Exclusion"}]},"count":0},{"code":{"coding":[{"system":"http://terminology.hl7.org/CodeSystem/measure-population","code":"numerator","display":"Numerator"}]},"count":0}]}],"evaluatedResource":[{"reference":"Patient/92b4eee9-78aa-4f58-9ccf-750556dfa62c"},{"reference":"Encounter/5ca6295cb8484628b8de1d22"},{"reference":"Coverage/5fa041471c76ba66d9959154"},{"reference":"Condition/obstetrics-9e12"},{"reference":"Organization/Org-123456"},{"reference":"Practitioner/practitioner-123456"}]},"request":{"method":"PUT","url":"MeasureReport/bfd6394f-300f-41c2-8795-0fd16ef7536d"}}]}