{
  "resourceType": "Bundle",
  "id": "Patient-11-IPPass-STDProcIndicatorDurMP",
  "type": "transaction",
  "entry": [ {
    "fullUrl": "https://madie.cms.gov/Patient/cbfbbda7-b17f-48d3-bdad-4c862cf246ae",
    "resource": {
      "resourceType": "Patient",
      "id": "cbfbbda7-b17f-48d3-bdad-4c862cf246ae",
      "meta": {
        "profile": [ "http://hl7.org/fhir/us/qicore/StructureDefinition/qicore-patient" ]
      },
      "extension": [ {
        "url": "http://hl7.org/fhir/us/core/StructureDefinition/us-core-race",
        "extension": [ {
          "url": "ombCategory",
          "valueCoding": {
            "system": "urn:oid:2.16.840.1.113883.6.238",
            "code": "2028-9",
            "display": "Asian"
          }
        }, {
          "url": "text",
          "valueString": "Asian"
        } ]
      }, {
        "url": "http://hl7.org/fhir/us/core/StructureDefinition/us-core-ethnicity",
        "extension": [ {
          "url": "ombCategory",
          "valueCoding": {
            "system": "urn:oid:2.16.840.1.113883.6.238",
            "code": "2135-2",
            "display": "Hispanic or Latino"
          }
        }, {
          "url": "text",
          "valueString": "Hispanic or Latino"
        } ]
      } ],
      "identifier": [ {
        "system": "http://hospital.smarthealthit.org",
        "value": "999999995"
      } ],
      "name": [ {
        "family": "Bertha",
        "given": [ "Betty" ]
      } ],
      "gender": "female",
      "birthDate": "2001-12-31"
    },
    "request": {
      "method": "PUT",
      "url": "Patient/cbfbbda7-b17f-48d3-bdad-4c862cf246ae"
    }
  }, {
    "fullUrl": "https://madie.cms.gov/Encounter/Encounter-11",
    "resource": {
      "resourceType": "Encounter",
      "id": "Encounter-11",
      "meta": {
        "profile": [ "http://hl7.org/fhir/us/qicore/StructureDefinition/qicore-encounter" ]
      },
      "status": "finished",
      "class": {
        "system": "http://terminology.hl7.org/CodeSystem/v3-ActCode",
        "code": "AMB",
        "display": "ambulatory"
      },
      "type": [ {
        "coding": [ {
          "system": "http://snomed.info/sct",
          "code": "185460008",
          "display": "Home visit request by patient (procedure)"
        } ]
      } ],
      "subject": {
        "reference": "Patient/cbfbbda7-b17f-48d3-bdad-4c862cf246ae"
      },
      "period": {
        "start": "2025-01-01T00:00:00.000Z",
        "end": "2025-01-01T00:15:00.000Z"
      }
    },
    "request": {
      "method": "PUT",
      "url": "Encounter/Encounter-11"
    }
  }, {
    "fullUrl": "https://madie.cms.gov/Procedure/Procedure-1",
    "resource": {
      "resourceType": "Procedure",
      "id": "Procedure-1",
      "meta": {
        "profile": [ "http://hl7.org/fhir/us/qicore/StructureDefinition/qicore-procedure" ]
      },
      "extension": [ {
        "url": "http://hl7.org/fhir/us/qicore/StructureDefinition/qicore-recorded",
        "valueDateTime": "2025-01-01T00:00:00.000Z"
      } ],
      "status": "completed",
      "code": {
        "coding": [ {
          "system": "http://snomed.info/sct",
          "code": "10455003",
          "display": "Removal of ectopic cervical pregnancy by evacuation (procedure)"
        } ]
      },
      "subject": {
        "reference": "Patient/cbfbbda7-b17f-48d3-bdad-4c862cf246ae"
      },
      "performedPeriod": {
        "start": "2025-01-01T00:00:00.000Z",
        "end": "2025-01-01T01:00:00.000Z"
      }
    },
    "request": {
      "method": "PUT",
      "url": "Procedure/Procedure-1"
    }
  }, {
    "fullUrl": "https://madie.cms.gov/MeasureReport/ad4cc9e8-e70e-4939-ac41-60c1ec43958a",
    "resource": {
      "resourceType": "MeasureReport",
      "id": "ad4cc9e8-e70e-4939-ac41-60c1ec43958a",
      "meta": {
        "profile": [ "http://hl7.org/fhir/us/cqfmeasures/StructureDefinition/test-case-cqfm" ]
      },
      "contained": [ {
        "resourceType": "Parameters",
        "id": "37c46d40-d38c-4f98-b520-d21414333e45-parameters",
        "parameter": [ {
          "name": "subject",
          "valueString": "cbfbbda7-b17f-48d3-bdad-4c862cf246ae"
        } ]
      } ],
      "extension": [ {
        "url": "http://hl7.org/fhir/us/cqfmeasures/StructureDefinition/cqfm-inputParameters",
        "valueReference": {
          "reference": "#37c46d40-d38c-4f98-b520-d21414333e45-parameters"
        }
      }, {
        "url": "http://hl7.org/fhir/us/cqfmeasures/StructureDefinition/cqfm-testCaseDescription",
        "valueMarkdown": "STD indicator procedure during the measurement period"
      } ],
      "modifierExtension": [ {
        "url": "http://hl7.org/fhir/us/cqfmeasures/StructureDefinition/cqfm-isTestCase",
        "valueBoolean": true
      } ],
      "status": "complete",
      "type": "individual",
      "measure": "https://madie.cms.gov/Measure/ChlamydiaScreeninginWomenFHIR",
      "period": {
        "start": "2025-01-01",
        "end": "2025-12-31"
      },
      "group": [ {
        "population": [ {
          "code": {
            "coding": [ {
              "system": "http://terminology.hl7.org/CodeSystem/measure-population",
              "code": "initial-population",
              "display": "Initial Population"
            } ]
          },
          "count": 1
        }, {
          "code": {
            "coding": [ {
              "system": "http://terminology.hl7.org/CodeSystem/measure-population",
              "code": "denominator",
              "display": "Denominator"
            } ]
          },
          "count": 1
        }, {
          "code": {
            "coding": [ {
              "system": "http://terminology.hl7.org/CodeSystem/measure-population",
              "code": "denominator-exclusion",
              "display": "Denominator Exclusion"
            } ]
          },
          "count": 0
        }, {
          "code": {
            "coding": [ {
              "system": "http://terminology.hl7.org/CodeSystem/measure-population",
              "code": "numerator",
              "display": "Numerator"
            } ]
          },
          "count": 0
        } ]
      } ],
      "evaluatedResource": [ {
        "reference": "Patient/cbfbbda7-b17f-48d3-bdad-4c862cf246ae"
      }, {
        "reference": "Encounter/Encounter-11"
      }, {
        "reference": "Procedure/Procedure-1"
      } ]
    },
    "request": {
      "method": "PUT",
      "url": "MeasureReport/ad4cc9e8-e70e-4939-ac41-60c1ec43958a"
    }
  } ]
}