{"resourceType":"Bundle","id":"tests-359e76b8-dac9-4636-b35f-3f5d2705b016-bundle","type":"transaction","entry":[{"fullUrl":"https://madie.cms.gov/Patient/359e76b8-dac9-4636-b35f-3f5d2705b016","resource":{"resourceType":"Patient","id":"359e76b8-dac9-4636-b35f-3f5d2705b016","meta":{"profile":["http://hl7.org/fhir/us/qicore/StructureDefinition/qicore-patient"]},"extension":[{"url":"http://hl7.org/fhir/us/core/StructureDefinition/us-core-race","extension":[{"url":"ombCategory","valueCoding":{"system":"urn:oid:2.16.840.1.113883.6.238","code":"2028-9","display":"Asian"}},{"url":"text","valueString":"Asian"}]},{"url":"http://hl7.org/fhir/us/core/StructureDefinition/us-core-ethnicity","extension":[{"url":"ombCategory","valueCoding":{"system":"urn:oid:2.16.840.1.113883.6.238","code":"2135-2","display":"Hispanic or Latino"}},{"url":"text","valueString":"Hispanic or Latino"}]}],"identifier":[{"system":"http://hospital.smarthealthit.org","value":"999999995"}],"name":[{"family":"Bertha","given":["Betty"]}],"gender":"female","birthDate":"2008-12-31"},"request":{"method":"PUT","url":"Patient/359e76b8-dac9-4636-b35f-3f5d2705b016"}},{"fullUrl":"https://madie.cms.gov/Encounter/Encounter-8","resource":{"resourceType":"Encounter","id":"Encounter-8","meta":{"profile":["http://hl7.org/fhir/us/qicore/StructureDefinition/qicore-encounter"]},"status":"finished","class":{"system":"http://terminology.hl7.org/CodeSystem/v3-ActCode","code":"AMB","display":"ambulatory"},"type":[{"coding":[{"system":"http://www.ama-assn.org/go/cpt","version":"2023","code":"99384","display":"Initial comprehensive preventive medicine evaluation and management of an individual including an age and gender appropriate history, examination, counseling/anticipatory guidance/risk factor reduction interventions, and the ordering of laboratory/diagnostic procedures, new patient; adolescent (age 12 through 17 years)"}]}],"subject":{"reference":"Patient/359e76b8-dac9-4636-b35f-3f5d2705b016"},"period":{"start":"2025-01-01T00:00:00.000Z","end":"2025-01-01T00:15:00.000Z"}},"request":{"method":"PUT","url":"Encounter/Encounter-8"}},{"fullUrl":"https://madie.cms.gov/ServiceRequest/ServiceRequest-3","resource":{"resourceType":"ServiceRequest","id":"ServiceRequest-3","meta":{"profile":["http://hl7.org/fhir/us/qicore/StructureDefinition/qicore-servicerequest"]},"extension":[{"url":"http://hl7.org/fhir/StructureDefinition/request-statusReason","valueCodeableConcept":{"coding":[{"system":"http://snomed.info/sct","code":"15635006","display":"Requested by Patient"}]}}],"status":"completed","intent":"order","category":[{"coding":[{"system":"http://snomed.info/sct","code":"387713003","display":"Surgical procedure"}]}],"priority":"routine","code":{"coding":[{"system":"http://loinc.org","code":"11083-3","display":"Human papilloma virus identified in Cervix"}]},"subject":{"reference":"Patient/359e76b8-dac9-4636-b35f-3f5d2705b016"},"encounter":{"reference":"Encounter/Encounter-8"},"occurrenceDateTime":"2025-01-01","authoredOn":"2025-01-01","performerType":{"coding":[{"system":"http://snomed.info/sct","code":"405279007","display":"Attending physician (occupation)"}]},"reasonCode":[{"coding":[{"system":"http://snomed.info/sct","code":"123614006","display":"Partial Cataract (disorder)"}]}]},"request":{"method":"PUT","url":"ServiceRequest/ServiceRequest-3"}},{"fullUrl":"https://madie.cms.gov/MeasureReport/15210329-b6dc-4a72-9fe5-eb1be5be6160","resource":{"resourceType":"MeasureReport","id":"15210329-b6dc-4a72-9fe5-eb1be5be6160","meta":{"profile":["http://hl7.org/fhir/us/cqfmeasures/StructureDefinition/test-case-cqfm"]},"contained":[{"resourceType":"Parameters","id":"b866408c-688a-4f2a-b7fa-bd40cdd69aff-parameters","parameter":[{"name":"subject","valueString":"359e76b8-dac9-4636-b35f-3f5d2705b016"}]}],"extension":[{"url":"http://hl7.org/fhir/us/cqfmeasures/StructureDefinition/cqfm-inputParameters","valueReference":{"reference":"#b866408c-688a-4f2a-b7fa-bd40cdd69aff-parameters"}},{"url":"http://hl7.org/fhir/us/cqfmeasures/StructureDefinition/cqfm-testCaseDescription","valueMarkdown":"STD test during the measurement period"}],"modifierExtension":[{"url":"http://hl7.org/fhir/us/cqfmeasures/StructureDefinition/cqfm-isTestCase","valueBoolean":true}],"status":"complete","type":"individual","measure":"https://madie.cms.gov/Measure/ChlamydiaScreeninginWomenFHIR","period":{"start":"2025-01-01","end":"2025-12-31"},"group":[{"population":[{"code":{"coding":[{"system":"http://terminology.hl7.org/CodeSystem/measure-population","code":"initial-population","display":"Initial Population"}]},"count":1},{"code":{"coding":[{"system":"http://terminology.hl7.org/CodeSystem/measure-population","code":"denominator","display":"Denominator"}]},"count":1},{"code":{"coding":[{"system":"http://terminology.hl7.org/CodeSystem/measure-population","code":"denominator-exclusion","display":"Denominator Exclusion"}]},"count":0},{"code":{"coding":[{"system":"http://terminology.hl7.org/CodeSystem/measure-population","code":"numerator","display":"Numerator"}]},"count":0}]}],"evaluatedResource":[{"reference":"Patient/359e76b8-dac9-4636-b35f-3f5d2705b016"},{"reference":"Encounter/Encounter-8"},{"reference":"ServiceRequest/ServiceRequest-3"}]},"request":{"method":"PUT","url":"MeasureReport/15210329-b6dc-4a72-9fe5-eb1be5be6160"}}]}