{
  "resourceType": "Bundle",
  "id": "16846435145131487496",
  "type": "transaction",
  "entry": [ {
    "fullUrl": "https://madie.cms.gov/Patient/ab7f5ace-9ac6-4077-bee9-444abeac4f51",
    "resource": {
      "resourceType": "Patient",
      "id": "ab7f5ace-9ac6-4077-bee9-444abeac4f51",
      "meta": {
        "profile": [ "http://hl7.org/fhir/us/qicore/StructureDefinition/qicore-patient" ]
      },
      "extension": [ {
        "url": "http://hl7.org/fhir/us/core/StructureDefinition/us-core-race",
        "extension": [ {
          "url": "ombCategory",
          "valueCoding": {
            "system": "urn:oid:2.16.840.1.113883.6.238",
            "code": "1002-5",
            "display": "American Indian or Alaska Native"
          }
        }, {
          "url": "text",
          "valueString": "American Indian or Alaska Native"
        } ]
      }, {
        "url": "http://hl7.org/fhir/us/core/StructureDefinition/us-core-ethnicity",
        "extension": [ {
          "url": "ombCategory",
          "valueCoding": {
            "system": "urn:oid:2.16.840.1.113883.6.238",
            "code": "2186-5",
            "display": "Not Hispanic or Latino"
          }
        }, {
          "url": "text",
          "valueString": "Not Hispanic or Latino"
        } ]
      } ],
      "identifier": [ {
        "type": {
          "coding": [ {
            "system": "http://terminology.hl7.org/CodeSystem/v2-0203",
            "code": "MR"
          } ]
        },
        "system": "https://bonnie-fhir.healthit.gov/",
        "value": "431385494631"
      } ],
      "name": [ {
        "family": "DENEXCEPPass",
        "given": [ "AllergyToARBIngrdnt" ]
      } ],
      "gender": "male",
      "birthDate": "1968-06-14"
    },
    "request": {
      "method": "PUT",
      "url": "Patient/ab7f5ace-9ac6-4077-bee9-444abeac4f51"
    }
  }, {
    "fullUrl": "https://madie.cms.gov/Encounter/Encounter-3516343416513251",
    "resource": {
      "resourceType": "Encounter",
      "id": "Encounter-3516343416513251",
      "meta": {
        "profile": [ "http://hl7.org/fhir/us/qicore/StructureDefinition/qicore-encounter" ]
      },
      "status": "finished",
      "class": {
        "system": "http://terminology.hl7.org/CodeSystem/v3-ActCode",
        "code": "AMB",
        "display": "ambulatory"
      },
      "type": [ {
        "coding": [ {
          "system": "http://snomed.info/sct",
          "version": "http://snomed.info/sct/731000124108/version/202303",
          "code": "18170008",
          "display": "Subsequent nursing facility visit (procedure)"
        } ]
      } ],
      "subject": {
        "reference": "Patient/ab7f5ace-9ac6-4077-bee9-444abeac4f51"
      },
      "period": {
        "start": "2025-03-31T14:40:00.000+00:00",
        "end": "2025-03-31T14:40:00.000+00:00"
      }
    },
    "request": {
      "method": "PUT",
      "url": "Encounter/Encounter-3516343416513251"
    }
  }, {
    "fullUrl": "https://madie.cms.gov/Encounter/Encounter-9879463131463",
    "resource": {
      "resourceType": "Encounter",
      "id": "Encounter-9879463131463",
      "meta": {
        "profile": [ "http://hl7.org/fhir/us/qicore/StructureDefinition/qicore-encounter" ]
      },
      "status": "finished",
      "class": {
        "system": "http://terminology.hl7.org/CodeSystem/v3-ActCode",
        "code": "AMB",
        "display": "ambulatory"
      },
      "type": [ {
        "coding": [ {
          "system": "http://snomed.info/sct",
          "version": "http://snomed.info/sct/731000124108/version/202303",
          "code": "185466002",
          "display": "Home visit for urgent condition (procedure)"
        } ]
      } ],
      "subject": {
        "reference": "Patient/ab7f5ace-9ac6-4077-bee9-444abeac4f51"
      },
      "period": {
        "start": "2025-05-15T11:50:00.000+00:00",
        "end": "2025-05-15T11:50:00.000+00:00"
      }
    },
    "request": {
      "method": "PUT",
      "url": "Encounter/Encounter-9879463131463"
    }
  }, {
    "fullUrl": "https://madie.cms.gov/Condition/Condition-12346846161634",
    "resource": {
      "resourceType": "Condition",
      "id": "Condition-12346846161634",
      "meta": {
        "profile": [ "http://hl7.org/fhir/us/qicore/StructureDefinition/qicore-condition" ]
      },
      "clinicalStatus": {
        "coding": [ {
          "system": "http://terminology.hl7.org/CodeSystem/condition-clinical",
          "code": "active",
          "display": "active"
        } ]
      },
      "verificationStatus": {
        "coding": [ {
          "system": "http://terminology.hl7.org/CodeSystem/condition-ver-status",
          "code": "confirmed",
          "display": "Confirmed"
        } ]
      },
      "category": [ {
        "coding": [ {
          "system": "http://terminology.hl7.org/CodeSystem/condition-category",
          "code": "problem-list-item",
          "display": "Problem List Item"
        } ]
      } ],
      "code": {
        "coding": [ {
          "system": "http://snomed.info/sct",
          "version": "http://snomed.info/sct/731000124108/version/202303",
          "code": "10091002",
          "display": "High output heart failure (disorder)"
        } ]
      },
      "subject": {
        "reference": "Patient/ab7f5ace-9ac6-4077-bee9-444abeac4f51"
      },
      "onsetPeriod": {
        "start": "2024-05-17T10:00:00.000+00:00"
      }
    },
    "request": {
      "method": "PUT",
      "url": "Condition/Condition-12346846161634"
    }
  }, {
    "fullUrl": "https://madie.cms.gov/Condition/Condition-16879784134134",
    "resource": {
      "resourceType": "Condition",
      "id": "Condition-16879784134134",
      "meta": {
        "profile": [ "http://hl7.org/fhir/us/qicore/StructureDefinition/qicore-condition" ]
      },
      "clinicalStatus": {
        "coding": [ {
          "system": "http://terminology.hl7.org/CodeSystem/condition-clinical",
          "code": "active",
          "display": "Active"
        } ]
      },
      "verificationStatus": {
        "coding": [ {
          "system": "http://terminology.hl7.org/CodeSystem/condition-ver-status",
          "code": "confirmed",
          "display": "Confirmed"
        } ]
      },
      "category": [ {
        "coding": [ {
          "system": "http://terminology.hl7.org/CodeSystem/condition-category",
          "code": "problem-list-item",
          "display": "Problem List Item"
        } ]
      } ],
      "code": {
        "coding": [ {
          "system": "http://snomed.info/sct",
          "version": "http://snomed.info/sct/731000124108/version/202303",
          "code": "991000124109",
          "display": "Severe left ventricular systolic dysfunction (disorder)"
        } ]
      },
      "subject": {
        "reference": "Patient/ab7f5ace-9ac6-4077-bee9-444abeac4f51"
      },
      "onsetPeriod": {
        "start": "2025-03-25T16:00:00.000+00:00",
        "end": "2025-03-30T16:00:00.000+00:00"
      }
    },
    "request": {
      "method": "PUT",
      "url": "Condition/Condition-16879784134134"
    }
  }, {
    "fullUrl": "https://madie.cms.gov/AllergyIntolerance/AllergyIntolerance-987456341331131",
    "resource": {
      "resourceType": "AllergyIntolerance",
      "id": "AllergyIntolerance-987456341331131",
      "meta": {
        "profile": [ "http://hl7.org/fhir/us/qicore/StructureDefinition/qicore-allergyintolerance" ]
      },
      "clinicalStatus": {
        "coding": [ {
          "system": "http://terminology.hl7.org/CodeSystem/allergyintolerance-clinical",
          "code": "active",
          "display": "Active"
        } ]
      },
      "verificationStatus": {
        "coding": [ {
          "system": "http://terminology.hl7.org/CodeSystem/allergyintolerance-verification",
          "code": "confirmed",
          "display": "Confirmed"
        } ]
      },
      "type": "allergy",
      "category": [ "medication" ],
      "criticality": "high",
      "code": {
        "coding": [ {
          "system": "http://www.nlm.nih.gov/research/umls/rxnorm",
          "version": "03062023",
          "code": "1091643",
          "display": "azilsartan"
        } ]
      },
      "patient": {
        "reference": "Patient/ab7f5ace-9ac6-4077-bee9-444abeac4f51"
      },
      "onsetDateTime": "2004",
      "recordedDate": "2024-09-25T16:00:00.000+00:00"
    },
    "request": {
      "method": "PUT",
      "url": "AllergyIntolerance/AllergyIntolerance-987456341331131"
    }
  }, {
    "fullUrl": "https://madie.cms.gov/MeasureReport/d48095c6-191e-4ed1-b2fa-2ce0b6225a31",
    "resource": {
      "resourceType": "MeasureReport",
      "id": "d48095c6-191e-4ed1-b2fa-2ce0b6225a31",
      "meta": {
        "profile": [ "http://hl7.org/fhir/us/cqfmeasures/StructureDefinition/test-case-cqfm" ]
      },
      "contained": [ {
        "resourceType": "Parameters",
        "id": "18be2462-931c-4855-ba5c-936d66df664a-parameters",
        "parameter": [ {
          "name": "subject",
          "valueString": "ab7f5ace-9ac6-4077-bee9-444abeac4f51"
        } ]
      } ],
      "extension": [ {
        "url": "http://hl7.org/fhir/us/cqfmeasures/StructureDefinition/cqfm-inputParameters",
        "valueReference": {
          "reference": "#18be2462-931c-4855-ba5c-936d66df664a-parameters"
        }
      }, {
        "url": "http://hl7.org/fhir/us/cqfmeasures/StructureDefinition/cqfm-testCaseDescription",
        "valueMarkdown": "Patient has 2 ambulatory encounters, HF diagnosis and LVSD and meets denominator exception with confirmed allergy to ARB ingredient"
      } ],
      "modifierExtension": [ {
        "url": "http://hl7.org/fhir/us/cqfmeasures/StructureDefinition/cqfm-isTestCase",
        "valueBoolean": true
      } ],
      "status": "complete",
      "type": "individual",
      "measure": "https://madie.cms.gov/Measure/HFACEIorARBorARNIforLVSDFHIR",
      "period": {
        "start": "2025-01-01",
        "end": "2025-12-31"
      },
      "group": [ {
        "population": [ {
          "code": {
            "coding": [ {
              "system": "http://terminology.hl7.org/CodeSystem/measure-population",
              "code": "initial-population",
              "display": "Initial Population"
            } ]
          },
          "count": 1
        }, {
          "code": {
            "coding": [ {
              "system": "http://terminology.hl7.org/CodeSystem/measure-population",
              "code": "denominator",
              "display": "Denominator"
            } ]
          },
          "count": 1
        }, {
          "code": {
            "coding": [ {
              "system": "http://terminology.hl7.org/CodeSystem/measure-population",
              "code": "denominator-exclusion",
              "display": "Denominator Exclusion"
            } ]
          },
          "count": 0
        }, {
          "code": {
            "coding": [ {
              "system": "http://terminology.hl7.org/CodeSystem/measure-population",
              "code": "denominator-exception",
              "display": "Denominator Exception"
            } ]
          },
          "count": 1
        }, {
          "code": {
            "coding": [ {
              "system": "http://terminology.hl7.org/CodeSystem/measure-population",
              "code": "numerator",
              "display": "Numerator"
            } ]
          },
          "count": 0
        } ]
      } ],
      "evaluatedResource": [ {
        "reference": "Patient/ab7f5ace-9ac6-4077-bee9-444abeac4f51"
      }, {
        "reference": "Encounter/Encounter-3516343416513251"
      }, {
        "reference": "Encounter/Encounter-9879463131463"
      }, {
        "reference": "Condition/Condition-12346846161634"
      }, {
        "reference": "Condition/Condition-16879784134134"
      }, {
        "reference": "AllergyIntolerance/AllergyIntolerance-987456341331131"
      } ]
    },
    "request": {
      "method": "PUT",
      "url": "MeasureReport/d48095c6-191e-4ed1-b2fa-2ce0b6225a31"
    }
  } ]
}