{
  "resourceType": "Bundle",
  "id": "SecondHighBPECGMedsNonPharm",
  "type": "transaction",
  "entry": [ {
    "fullUrl": "https://madie.cms.gov/Patient/5210ccf4-ddf8-4692-aa39-b03d84e9a469",
    "resource": {
      "resourceType": "Patient",
      "id": "5210ccf4-ddf8-4692-aa39-b03d84e9a469",
      "meta": {
        "profile": [ "http://hl7.org/fhir/us/qicore/StructureDefinition/qicore-patient" ]
      },
      "extension": [ {
        "url": "http://hl7.org/fhir/us/core/StructureDefinition/us-core-race",
        "extension": [ {
          "url": "ombCategory",
          "valueCoding": {
            "system": "urn:oid:2.16.840.1.113883.6.238",
            "code": "1002-5",
            "display": "American Indian or Alaska Native",
            "userSelected": true
          }
        }, {
          "url": "text",
          "valueString": "American Indian or Alaska Native"
        } ]
      }, {
        "url": "http://hl7.org/fhir/us/core/StructureDefinition/us-core-ethnicity",
        "extension": [ {
          "url": "ombCategory",
          "valueCoding": {
            "system": "urn:oid:2.16.840.1.113883.6.238",
            "code": "2135-2",
            "display": "Hispanic or Latino",
            "userSelected": true
          }
        }, {
          "url": "text",
          "valueString": "Hispanic or Latino"
        } ]
      } ],
      "identifier": [ {
        "type": {
          "coding": [ {
            "system": "http://terminology.hl7.org/CodeSystem/v2-0203",
            "code": "MR"
          } ]
        },
        "system": "https://bonnie-fhir.healthit.gov/",
        "value": "SecondHighBPECGMedsNonPharm"
      } ],
      "name": [ {
        "family": "NUMERPass",
        "given": [ "SecondHighBPECGMedsNonPharm" ]
      } ],
      "gender": "male",
      "birthDate": "1974-12-31"
    },
    "request": {
      "method": "PUT",
      "url": "Patient/5210ccf4-ddf8-4692-aa39-b03d84e9a469"
    }
  }, {
    "fullUrl": "https://madie.cms.gov/Encounter/encounter-to-screen-for-blood-pressure-975f",
    "resource": {
      "resourceType": "Encounter",
      "id": "encounter-to-screen-for-blood-pressure-975f",
      "meta": {
        "profile": [ "http://hl7.org/fhir/us/qicore/StructureDefinition/qicore-encounter" ]
      },
      "status": "finished",
      "class": {
        "system": "http://terminology.hl7.org/CodeSystem/v3-ActCode",
        "code": "AMB",
        "display": "ambulatory"
      },
      "type": [ {
        "coding": [ {
          "system": "http://snomed.info/sct",
          "version": "2022-03",
          "code": "103705002",
          "display": "Patient status observation (procedure)",
          "userSelected": true
        } ]
      } ],
      "subject": {
        "reference": "Patient/5210ccf4-ddf8-4692-aa39-b03d84e9a469"
      },
      "period": {
        "start": "2025-01-01T08:00:00.000+00:00",
        "end": "2025-01-01T08:45:00.000+00:00"
      }
    },
    "request": {
      "method": "PUT",
      "url": "Encounter/encounter-to-screen-for-blood-pressure-975f"
    }
  }, {
    "fullUrl": "https://madie.cms.gov/ServiceRequest/follow-up-within-4-weeks-9762",
    "resource": {
      "resourceType": "ServiceRequest",
      "id": "follow-up-within-4-weeks-9762",
      "meta": {
        "profile": [ "http://hl7.org/fhir/us/qicore/StructureDefinition/qicore-servicerequest" ]
      },
      "status": "active",
      "intent": "order",
      "code": {
        "coding": [ {
          "system": "http://snomed.info/sct",
          "version": "2022-03",
          "code": "183617005",
          "display": "Follow-up 1 day (finding)",
          "userSelected": true
        } ]
      },
      "subject": {
        "reference": "Patient/5210ccf4-ddf8-4692-aa39-b03d84e9a469"
      },
      "authoredOn": "2025-01-01T08:30:00.000+00:00"
    },
    "request": {
      "method": "PUT",
      "url": "ServiceRequest/follow-up-within-4-weeks-9762"
    }
  }, {
    "fullUrl": "https://madie.cms.gov/Encounter/encounter-to-screen-for-blood-pressure-69d7",
    "resource": {
      "resourceType": "Encounter",
      "id": "encounter-to-screen-for-blood-pressure-69d7",
      "meta": {
        "profile": [ "http://hl7.org/fhir/us/qicore/StructureDefinition/qicore-encounter" ]
      },
      "status": "finished",
      "class": {
        "system": "http://terminology.hl7.org/CodeSystem/v3-ActCode",
        "code": "AMB",
        "display": "ambulatory"
      },
      "type": [ {
        "coding": [ {
          "system": "http://snomed.info/sct",
          "version": "2022-03",
          "code": "103705002",
          "display": "Patient status observation (procedure)",
          "userSelected": true
        } ]
      } ],
      "subject": {
        "reference": "Patient/5210ccf4-ddf8-4692-aa39-b03d84e9a469"
      },
      "period": {
        "start": "2025-12-31T10:00:00.000+00:00",
        "end": "2025-12-31T10:45:00.000+00:00"
      }
    },
    "request": {
      "method": "PUT",
      "url": "Encounter/encounter-to-screen-for-blood-pressure-69d7"
    }
  }, {
    "fullUrl": "https://madie.cms.gov/ServiceRequest/follow-up-within-4-weeks-69da",
    "resource": {
      "resourceType": "ServiceRequest",
      "id": "follow-up-within-4-weeks-69da",
      "meta": {
        "profile": [ "http://hl7.org/fhir/us/qicore/StructureDefinition/qicore-servicerequest" ]
      },
      "status": "active",
      "intent": "order",
      "code": {
        "coding": [ {
          "system": "http://snomed.info/sct",
          "version": "2022-03",
          "code": "183620002",
          "display": "Follow-up 1 week (finding)",
          "userSelected": true
        } ]
      },
      "subject": {
        "reference": "Patient/5210ccf4-ddf8-4692-aa39-b03d84e9a469"
      },
      "authoredOn": "2025-12-31T10:10:00.000+00:00"
    },
    "request": {
      "method": "PUT",
      "url": "ServiceRequest/follow-up-within-4-weeks-69da"
    }
  }, {
    "fullUrl": "https://madie.cms.gov/ServiceRequest/referral-or-counseling-for-alcohol-consumption-69db",
    "resource": {
      "resourceType": "ServiceRequest",
      "id": "referral-or-counseling-for-alcohol-consumption-69db",
      "meta": {
        "profile": [ "http://hl7.org/fhir/us/qicore/StructureDefinition/qicore-servicerequest" ]
      },
      "status": "active",
      "intent": "order",
      "code": {
        "coding": [ {
          "system": "http://snomed.info/sct",
          "version": "2022-03",
          "code": "20093000",
          "display": "Alcohol rehabilitation and detoxification (regime/therapy)",
          "userSelected": true
        } ]
      },
      "subject": {
        "reference": "Patient/5210ccf4-ddf8-4692-aa39-b03d84e9a469"
      },
      "authoredOn": "2025-01-01T08:30:00.000+00:00"
    },
    "request": {
      "method": "PUT",
      "url": "ServiceRequest/referral-or-counseling-for-alcohol-consumption-69db"
    }
  }, {
    "fullUrl": "https://madie.cms.gov/ServiceRequest/ekg-study-69dc",
    "resource": {
      "resourceType": "ServiceRequest",
      "id": "ekg-study-69dc",
      "meta": {
        "profile": [ "http://hl7.org/fhir/us/qicore/StructureDefinition/qicore-servicenotrequested" ]
      },
      "extension": [ {
        "url": "http://hl7.org/fhir/us/qicore/StructureDefinition/qicore-doNotPerformReason",
        "valueCodeableConcept": {
          "coding": [ {
            "system": "http://snomed.info/sct",
            "code": "105480006",
            "display": "Procedure declined by patient (situation)",
            "userSelected": true
          } ]
        }
      } ],
      "status": "completed",
      "intent": "order",
      "doNotPerform": true,
      "code": {
        "coding": [ {
          "system": "http://loinc.org",
          "code": "11524-6",
          "display": "EKG study",
          "userSelected": true
        } ]
      },
      "subject": {
        "reference": "Patient/5210ccf4-ddf8-4692-aa39-b03d84e9a469"
      },
      "authoredOn": "2025-12-31T10:10:00.000+00:00"
    },
    "request": {
      "method": "PUT",
      "url": "ServiceRequest/ekg-study-69dc"
    }
  }, {
    "fullUrl": "https://madie.cms.gov/ServiceRequest/lifestyle-recommendation-69dd",
    "resource": {
      "resourceType": "ServiceRequest",
      "id": "lifestyle-recommendation-69dd",
      "meta": {
        "profile": [ "http://hl7.org/fhir/us/qicore/StructureDefinition/qicore-servicerequest" ]
      },
      "status": "active",
      "intent": "order",
      "code": {
        "coding": [ {
          "system": "http://snomed.info/sct",
          "version": "2022-03",
          "code": "313204009",
          "display": "Lifestyle education (procedure)",
          "userSelected": true
        } ]
      },
      "subject": {
        "reference": "Patient/5210ccf4-ddf8-4692-aa39-b03d84e9a469"
      },
      "authoredOn": "2025-12-31T10:10:00.000+00:00"
    },
    "request": {
      "method": "PUT",
      "url": "ServiceRequest/lifestyle-recommendation-69dd"
    }
  }, {
    "fullUrl": "https://madie.cms.gov/MedicationRequest/pharmacologic-therapy-for-hypertension-69de",
    "resource": {
      "resourceType": "MedicationRequest",
      "id": "pharmacologic-therapy-for-hypertension-69de",
      "meta": {
        "profile": [ "http://hl7.org/fhir/us/qicore/StructureDefinition/qicore-medicationrequest" ]
      },
      "status": "active",
      "intent": "order",
      "medicationCodeableConcept": {
        "coding": [ {
          "system": "http://www.nlm.nih.gov/research/umls/rxnorm",
          "code": "1000001",
          "display": "amlodipine 5 MG / hydrochlorothiazide 25 MG / olmesartan medoxomil 40 MG Oral Tablet",
          "userSelected": true
        } ]
      },
      "subject": {
        "reference": "Patient/5210ccf4-ddf8-4692-aa39-b03d84e9a469"
      },
      "authoredOn": "2025-12-31T10:10:00.000+00:00",
      "requester": {
        "reference": "Practitioner/f007",
        "display": "Patrick Pump"
      }
    },
    "request": {
      "method": "PUT",
      "url": "MedicationRequest/pharmacologic-therapy-for-hypertension-69de"
    }
  }, {
    "fullUrl": "https://madie.cms.gov/Observation/blood-pressure-1",
    "resource": {
      "resourceType": "Observation",
      "id": "blood-pressure-1",
      "meta": {
        "profile": [ "http://hl7.org/fhir/StructureDefinition/bp" ]
      },
      "status": "final",
      "category": [ {
        "coding": [ {
          "system": "http://terminology.hl7.org/CodeSystem/observation-category",
          "code": "vital-signs",
          "display": "Vital Signs"
        } ],
        "text": "Vital Signs"
      } ],
      "code": {
        "coding": [ {
          "system": "http://loinc.org",
          "code": "85354-9",
          "display": "Blood pressure panel"
        } ]
      },
      "subject": {
        "reference": "Patient/5210ccf4-ddf8-4692-aa39-b03d84e9a469"
      },
      "effectiveDateTime": "2025-01-01T08:05:00.000Z",
      "component": [ {
        "code": {
          "coding": [ {
            "system": "http://loinc.org",
            "code": "8480-6",
            "display": "Systolic blood pressure"
          } ]
        },
        "valueQuantity": {
          "value": 140,
          "unit": "mmHg",
          "system": "http://unitsofmeasure.org",
          "code": "mm[Hg]"
        }
      }, {
        "code": {
          "coding": [ {
            "system": "http://loinc.org",
            "code": "8462-4",
            "display": "Diastolic blood pressure"
          } ]
        },
        "valueQuantity": {
          "value": 90,
          "unit": "mmHg",
          "system": "http://unitsofmeasure.org",
          "code": "mm[Hg]"
        }
      } ]
    },
    "request": {
      "method": "PUT",
      "url": "Observation/blood-pressure-1"
    }
  }, {
    "fullUrl": "https://madie.cms.gov/Observation/blood-pressure-2",
    "resource": {
      "resourceType": "Observation",
      "id": "blood-pressure-2",
      "meta": {
        "profile": [ "http://hl7.org/fhir/StructureDefinition/bp" ]
      },
      "status": "final",
      "category": [ {
        "coding": [ {
          "system": "http://terminology.hl7.org/CodeSystem/observation-category",
          "code": "vital-signs",
          "display": "Vital Signs"
        } ],
        "text": "Vital Signs"
      } ],
      "code": {
        "coding": [ {
          "system": "http://loinc.org",
          "code": "85354-9",
          "display": "Blood pressure panel"
        } ]
      },
      "subject": {
        "reference": "Patient/5210ccf4-ddf8-4692-aa39-b03d84e9a469"
      },
      "effectiveDateTime": "2025-12-31T10:05:00.000Z",
      "component": [ {
        "code": {
          "coding": [ {
            "system": "http://loinc.org",
            "code": "8480-6",
            "display": "Systolic blood pressure"
          } ]
        },
        "valueQuantity": {
          "value": 160,
          "unit": "mmHg",
          "system": "http://unitsofmeasure.org",
          "code": "mm[Hg]"
        }
      }, {
        "code": {
          "coding": [ {
            "system": "http://loinc.org",
            "code": "8462-4",
            "display": "Diastolic blood pressure"
          } ]
        },
        "valueQuantity": {
          "value": 90,
          "unit": "mmHg",
          "system": "http://unitsofmeasure.org",
          "code": "mm[Hg]"
        }
      } ]
    },
    "request": {
      "method": "PUT",
      "url": "Observation/blood-pressure-2"
    }
  }, {
    "fullUrl": "https://madie.cms.gov/Coverage/1",
    "resource": {
      "resourceType": "Coverage",
      "id": "Coverage-1",
      "meta": {
        "profile": [ "http://hl7.org/fhir/us/qicore/StructureDefinition/qicore-coverage" ]
      },
      "status": "active",
      "beneficiary": {
        "reference": "Patient/5210ccf4-ddf8-4692-aa39-b03d84e9a469"
      },
      "payor": [ {
        "reference": "Organization/Org-123456"
      } ]
    },
    "request": {
      "method": "PUT",
      "url": "Coverage/Coverage-1"
    }
  }, {
    "fullUrl": "https://madie.cms.gov/Organization/123456",
    "resource": {
      "resourceType": "Organization",
      "id": "Org-123456",
      "meta": {
        "profile": [ "http://hl7.org/fhir/us/qicore/StructureDefinition/qicore-organization" ]
      },
      "identifier": [ {
        "use": "temp",
        "system": "urn:oid:2.16.840.1.113883.4.4",
        "value": "21-3259825"
      } ],
      "active": true,
      "type": [ {
        "coding": [ {
          "system": "http://terminology.hl7.org/CodeSystem/organization-type",
          "code": "pay",
          "display": "Payer"
        } ]
      } ],
      "name": "Blue Cross Blue Shield of Texas",
      "telecom": [ {
        "system": "phone",
        "value": "(+1) 972-766-6900"
      } ],
      "address": [ {
        "use": "billing",
        "type": "postal",
        "line": [ "P.O. Box 660044" ],
        "city": "Dallas",
        "state": "TX",
        "postalCode": "75266-0044",
        "country": "USA"
      } ]
    },
    "request": {
      "method": "PUT",
      "url": "Organization/Org-123456"
    }
  }, {
    "fullUrl": "https://madie.cms.gov/MeasureReport/8adfaa2a-a3ba-4c29-b093-19a22cf539c6",
    "resource": {
      "resourceType": "MeasureReport",
      "id": "8adfaa2a-a3ba-4c29-b093-19a22cf539c6",
      "meta": {
        "profile": [ "http://hl7.org/fhir/us/cqfmeasures/StructureDefinition/test-case-cqfm" ]
      },
      "contained": [ {
        "resourceType": "Parameters",
        "id": "76212a17-c56a-437f-adbe-3e8a6e80b7f4-parameters",
        "parameter": [ {
          "name": "subject",
          "valueString": "5210ccf4-ddf8-4692-aa39-b03d84e9a469"
        } ]
      } ],
      "extension": [ {
        "url": "http://hl7.org/fhir/us/cqfmeasures/StructureDefinition/cqfm-inputParameters",
        "valueReference": {
          "reference": "#76212a17-c56a-437f-adbe-3e8a6e80b7f4-parameters"
        }
      }, {
        "url": "http://hl7.org/fhir/us/cqfmeasures/StructureDefinition/cqfm-testCaseDescription",
        "valueMarkdown": "Enc 1/1  0800-0845 during MP, BP 140/90, follow up in 1 day, alcohol consumption for rehab/detox, \n2nd Enc 12/31 @1000-1045 BP 160/90, f/u in 2 -3 mo. EKG study refused, lifestyle changes recommended, medication."
      } ],
      "modifierExtension": [ {
        "url": "http://hl7.org/fhir/us/cqfmeasures/StructureDefinition/cqfm-isTestCase",
        "valueBoolean": true
      } ],
      "status": "complete",
      "type": "individual",
      "measure": "https://madie.cms.gov/Measure/PCSBPScreeningFollowUpFHIR",
      "period": {
        "start": "2025-01-01",
        "end": "2025-12-31"
      },
      "group": [ {
        "population": [ {
          "code": {
            "coding": [ {
              "system": "http://terminology.hl7.org/CodeSystem/measure-population",
              "code": "initial-population",
              "display": "Initial Population"
            } ]
          },
          "count": 2
        }, {
          "code": {
            "coding": [ {
              "system": "http://terminology.hl7.org/CodeSystem/measure-population",
              "code": "denominator",
              "display": "Denominator"
            } ]
          },
          "count": 2
        }, {
          "code": {
            "coding": [ {
              "system": "http://terminology.hl7.org/CodeSystem/measure-population",
              "code": "denominator-exclusion",
              "display": "Denominator Exclusion"
            } ]
          },
          "count": 0
        }, {
          "code": {
            "coding": [ {
              "system": "http://terminology.hl7.org/CodeSystem/measure-population",
              "code": "numerator",
              "display": "Numerator"
            } ]
          },
          "count": 1
        }, {
          "code": {
            "coding": [ {
              "system": "http://terminology.hl7.org/CodeSystem/measure-population",
              "code": "denominator-exception",
              "display": "Denominator Exception"
            } ]
          },
          "count": 1
        } ]
      } ],
      "evaluatedResource": [ {
        "reference": "Patient/5210ccf4-ddf8-4692-aa39-b03d84e9a469"
      }, {
        "reference": "Encounter/encounter-to-screen-for-blood-pressure-975f"
      }, {
        "reference": "ServiceRequest/follow-up-within-4-weeks-9762"
      }, {
        "reference": "Encounter/encounter-to-screen-for-blood-pressure-69d7"
      }, {
        "reference": "ServiceRequest/follow-up-within-4-weeks-69da"
      }, {
        "reference": "ServiceRequest/referral-or-counseling-for-alcohol-consumption-69db"
      }, {
        "reference": "ServiceRequest/ekg-study-69dc"
      }, {
        "reference": "ServiceRequest/lifestyle-recommendation-69dd"
      }, {
        "reference": "MedicationRequest/pharmacologic-therapy-for-hypertension-69de"
      }, {
        "reference": "Observation/blood-pressure-1"
      }, {
        "reference": "Observation/blood-pressure-2"
      }, {
        "reference": "Coverage/Coverage-1"
      }, {
        "reference": "Organization/Org-123456"
      } ]
    },
    "request": {
      "method": "PUT",
      "url": "MeasureReport/8adfaa2a-a3ba-4c29-b093-19a22cf539c6"
    }
  } ]
}