{"resourceType":"Bundle","id":"tests-e63a6991-c432-4662-808e-87c87e47f860-bundle","type":"transaction","entry":[{"fullUrl":"https://madie.cms.gov/Patient/e63a6991-c432-4662-808e-87c87e47f860","resource":{"resourceType":"Patient","id":"e63a6991-c432-4662-808e-87c87e47f860","meta":{"profile":["http://hl7.org/fhir/us/qicore/StructureDefinition/qicore-patient"]},"extension":[{"url":"http://hl7.org/fhir/us/core/StructureDefinition/us-core-race","extension":[{"url":"ombCategory","valueCoding":{"system":"urn:oid:2.16.840.1.113883.6.238","code":"2028-9","display":"Asian"}},{"url":"text","valueString":"Asian"}]},{"url":"http://hl7.org/fhir/us/core/StructureDefinition/us-core-ethnicity","extension":[{"url":"ombCategory","valueCoding":{"system":"urn:oid:2.16.840.1.113883.6.238","code":"2135-2","display":"Hispanic or Latino"}},{"url":"text","valueString":"Hispanic or Latino"}]}],"identifier":[{"system":"http://hospital.smarthealthit.org","value":"999999995"}],"name":[{"family":"Bertha","given":["Betty"]}],"gender":"female","birthDate":"2007-01-01"},"request":{"method":"PUT","url":"Patient/e63a6991-c432-4662-808e-87c87e47f860"}},{"fullUrl":"https://madie.cms.gov/Encounter/Encounter-32","resource":{"resourceType":"Encounter","id":"5f8f3954-135f-46e8-9d56-07a013efc518","meta":{"profile":["http://hl7.org/fhir/us/qicore/StructureDefinition/qicore-encounter"]},"status":"finished","class":{"system":"http://terminology.hl7.org/CodeSystem/v3-ActCode","code":"AMB","display":"ambulatory"},"type":[{"coding":[{"system":"http://snomed.info/sct","code":"185317003","display":"Telephone encounter (procedure)"}]}],"subject":{"reference":"Patient/e63a6991-c432-4662-808e-87c87e47f860"},"period":{"start":"2025-01-01T01:00:00.000Z","end":"2025-01-01T01:15:00.000Z"}},"request":{"method":"PUT","url":"Encounter/5f8f3954-135f-46e8-9d56-07a013efc518"}},{"fullUrl":"https://madie.cms.gov/Encounter/Encounter-33","resource":{"resourceType":"Encounter","id":"83e6b081-e694-4f2c-890c-9e929d234008","meta":{"profile":["http://hl7.org/fhir/us/qicore/StructureDefinition/qicore-encounter"]},"status":"finished","class":{"system":"http://terminology.hl7.org/CodeSystem/v3-ActCode","code":"AMB","display":"ambulatory"},"type":[{"coding":[{"system":"http://snomed.info/sct","code":"185317003","display":"Telephone encounter (procedure)"}]}],"subject":{"reference":"Patient/e63a6991-c432-4662-808e-87c87e47f860"},"period":{"start":"2025-01-02T01:00:00.000Z","end":"2025-01-02T01:15:00.000Z"}},"request":{"method":"PUT","url":"Encounter/83e6b081-e694-4f2c-890c-9e929d234008"}},{"fullUrl":"https://madie.cms.gov/Condition/Condition-16","resource":{"resourceType":"Condition","id":"124c3690-7aa6-437b-9eb7-cb2458f3b86b","meta":{"profile":["http://hl7.org/fhir/us/qicore/StructureDefinition/qicore-condition"]},"clinicalStatus":{"coding":[{"system":"http://terminology.hl7.org/CodeSystem/condition-clinical","code":"active"}]},"category":[{"coding":[{"system":"http://terminology.hl7.org/CodeSystem/condition-category","code":"problem-list-item","display":"Problem List Item"}]}],"code":{"coding":[{"system":"http://snomed.info/sct","code":"10091002","display":"High output heart failure (disorder)"}]},"subject":{"reference":"Patient/e63a6991-c432-4662-808e-87c87e47f860"},"onsetDateTime":"2024-12-31T23:59:00.000Z"},"request":{"method":"PUT","url":"Condition/124c3690-7aa6-437b-9eb7-cb2458f3b86b"}},{"fullUrl":"https://madie.cms.gov/Observation/Observation-50","resource":{"resourceType":"Observation","id":"1d207c60-1764-4be7-a2d1-161093ac9195","meta":{"profile":["http://hl7.org/fhir/us/qicore/StructureDefinition/qicore-observation"]},"status":"final","category":[{"coding":[{"system":"http://terminology.hl7.org/CodeSystem/observation-category","code":"survey","display":"survey"}],"text":"survey"}],"code":{"coding":[{"system":"http://loinc.org","code":"71940-1","display":"Overall summary score [KCCQ]"}]},"subject":{"reference":"Patient/e63a6991-c432-4662-808e-87c87e47f860"},"effectivePeriod":{"start":"2025-01-01T23:00:00.000Z","end":"2025-01-01T23:59:00.000Z"},"valueInteger":4},"request":{"method":"PUT","url":"Observation/1d207c60-1764-4be7-a2d1-161093ac9195"}},{"fullUrl":"https://madie.cms.gov/Observation/Observation-51","resource":{"resourceType":"Observation","id":"4ee5e479-689f-4b2e-9dba-278ad285df58","meta":{"profile":["http://hl7.org/fhir/us/qicore/StructureDefinition/qicore-observation"]},"status":"final","category":[{"coding":[{"system":"http://terminology.hl7.org/CodeSystem/observation-category","code":"survey","display":"survey"}],"text":"survey"}],"code":{"coding":[{"system":"http://loinc.org","code":"71940-1","display":"Overall summary score [KCCQ]"}]},"subject":{"reference":"Patient/e63a6991-c432-4662-808e-87c87e47f860"},"effectivePeriod":{"start":"2025-01-31T23:00:00.000Z","end":"2025-01-31T23:59:00.000Z"},"valueInteger":4},"request":{"method":"PUT","url":"Observation/4ee5e479-689f-4b2e-9dba-278ad285df58"}},{"fullUrl":"https://madie.cms.gov/MeasureReport/c2465644-869c-4fdb-928e-8b8a51ea8c81","resource":{"resourceType":"MeasureReport","id":"c2465644-869c-4fdb-928e-8b8a51ea8c81","meta":{"profile":["http://hl7.org/fhir/us/cqfmeasures/StructureDefinition/test-case-cqfm"]},"contained":[{"resourceType":"Parameters","id":"f1778b81-796e-420a-bfd8-a9f552238d9d-parameters","parameter":[{"name":"subject","valueString":"e63a6991-c432-4662-808e-87c87e47f860"}]}],"extension":[{"url":"http://hl7.org/fhir/us/cqfmeasures/StructureDefinition/cqfm-inputParameters","valueReference":{"reference":"#f1778b81-796e-420a-bfd8-a9f552238d9d-parameters"}},{"url":"http://hl7.org/fhir/us/cqfmeasures/StructureDefinition/cqfm-testCaseDescription","valueMarkdown":"Patient has all KCCQ Total Score Assessments with results during the correct timeframe."}],"modifierExtension":[{"url":"http://hl7.org/fhir/us/cqfmeasures/StructureDefinition/cqfm-isTestCase","valueBoolean":true}],"status":"complete","type":"individual","measure":"https://madie.cms.gov/Measure/FunctionalStatusAssessmentsforHeartFailureFHIR","period":{"start":"2025-01-01","end":"2025-12-31"},"group":[{"population":[{"code":{"coding":[{"system":"http://terminology.hl7.org/CodeSystem/measure-population","code":"initial-population","display":"Initial Population"}]},"count":1},{"code":{"coding":[{"system":"http://terminology.hl7.org/CodeSystem/measure-population","code":"denominator","display":"Denominator"}]},"count":1},{"code":{"coding":[{"system":"http://terminology.hl7.org/CodeSystem/measure-population","code":"denominator-exclusion","display":"Denominator Exclusion"}]},"count":0},{"code":{"coding":[{"system":"http://terminology.hl7.org/CodeSystem/measure-population","code":"numerator","display":"Numerator"}]},"count":1}]}]},"request":{"method":"PUT","url":"MeasureReport/c2465644-869c-4fdb-928e-8b8a51ea8c81"}}]}