{
  "resourceType": "Bundle",
  "id": "60f82c2f98086b570510e2c0",
  "type": "transaction",
  "entry": [ {
    "fullUrl": "https://madie.cms.gov/Patient/ac23e6a6-3f36-49db-9eba-2da744a41c57",
    "resource": {
      "resourceType": "Patient",
      "id": "ac23e6a6-3f36-49db-9eba-2da744a41c57",
      "meta": {
        "profile": [ "http://hl7.org/fhir/us/qicore/StructureDefinition/qicore-patient" ]
      },
      "text": {
        "status": "generated",
        "div": "<div xmlns=\"http://www.w3.org/1999/xhtml\"><div class=\"hapiHeaderText\">INR1minB4EDstart_EDend1hrB4_OBSend1hrB4DayAft_IPstart <b>DENEXCEPASS </b></div><table class=\"hapiPropertyTable\"><tbody><tr><td>Identifier</td><td>89ea8ad611120273e39d590cc026d6ca35e3720cede5138111e1e8c931d79085</td></tr><tr><td>Date of birth</td><td><span>26 September 1975</span></td></tr></tbody></table></div>"
      },
      "extension": [ {
        "url": "http://hl7.org/fhir/us/core/StructureDefinition/us-core-race",
        "extension": [ {
          "url": "ombCategory",
          "valueCoding": {
            "system": "urn:oid:2.16.840.1.113883.6.238",
            "code": "2054-5",
            "display": "Black or African American",
            "userSelected": true
          }
        }, {
          "url": "text",
          "valueString": "Black or African American"
        } ]
      }, {
        "url": "http://hl7.org/fhir/us/core/StructureDefinition/us-core-ethnicity",
        "extension": [ {
          "url": "ombCategory",
          "valueCoding": {
            "system": "urn:oid:2.16.840.1.113883.6.238",
            "code": "2186-5",
            "display": "Not Hispanic or Latino",
            "userSelected": true
          }
        }, {
          "url": "text",
          "valueString": "Not Hispanic or Latino"
        } ]
      } ],
      "identifier": [ {
        "type": {
          "coding": [ {
            "system": "http://terminology.hl7.org/CodeSystem/v2-0203",
            "code": "MR"
          } ]
        },
        "system": "https://bonnie-fhir.healthit.gov/",
        "value": "60f82c2f98086b570510e2c0"
      } ],
      "active": true,
      "name": [ {
        "use": "usual",
        "family": "DENEXCEPass",
        "given": [ "INR1minB4EDstart_EDend1hrB4_OBSend1hrB4DayAft_IPstart" ]
      } ],
      "gender": "female",
      "birthDate": "1975-09-26"
    },
    "request": {
      "method": "PUT",
      "url": "Patient/ac23e6a6-3f36-49db-9eba-2da744a41c57"
    }
  }, {
    "fullUrl": "https://madie.cms.gov/Encounter/5d41f2adb848464ca836aac9",
    "resource": {
      "resourceType": "Encounter",
      "id": "5d41f2adb848464ca836aac9",
      "meta": {
        "profile": [ "http://hl7.org/fhir/us/qicore/StructureDefinition/qicore-encounter" ]
      },
      "status": "finished",
      "class": {
        "system": "http://terminology.hl7.org/CodeSystem/v3-ActCode",
        "code": "EMER",
        "display": "emergency",
        "userSelected": true
      },
      "type": [ {
        "coding": [ {
          "system": "http://snomed.info/sct",
          "code": "4525004"
        } ]
      } ],
      "subject": {
        "reference": "Patient/ac23e6a6-3f36-49db-9eba-2da744a41c57"
      },
      "period": {
        "start": "2025-10-10T06:32:00+00:00",
        "end": "2025-10-10T23:59:00+00:00"
      },
      "length": {
        "value": 0.0,
        "unit": "days"
      }
    },
    "request": {
      "method": "PUT",
      "url": "Encounter/5d41f2adb848464ca836aac9"
    }
  }, {
    "fullUrl": "https://madie.cms.gov/Encounter/5d41f2adb848464ca836aaca",
    "resource": {
      "resourceType": "Encounter",
      "id": "5d41f2adb848464ca836aaca",
      "meta": {
        "profile": [ "http://hl7.org/fhir/us/qicore/StructureDefinition/qicore-encounter" ]
      },
      "status": "finished",
      "class": {
        "system": "http://terminology.hl7.org/CodeSystem/v3-ActCode",
        "code": "OBSENC",
        "display": "observation encounter",
        "userSelected": true
      },
      "type": [ {
        "coding": [ {
          "system": "http://snomed.info/sct",
          "code": "448951000124107"
        } ]
      } ],
      "subject": {
        "reference": "Patient/ac23e6a6-3f36-49db-9eba-2da744a41c57"
      },
      "period": {
        "start": "2025-10-11T00:00:00+00:00",
        "end": "2025-10-11T06:31:00+00:00"
      },
      "length": {
        "value": 0.0,
        "unit": "days"
      }
    },
    "request": {
      "method": "PUT",
      "url": "Encounter/5d41f2adb848464ca836aaca"
    }
  }, {
    "fullUrl": "https://madie.cms.gov/Encounter/5d41f2adb848464ca836aacb",
    "resource": {
      "resourceType": "Encounter",
      "id": "5d41f2adb848464ca836aacb",
      "meta": {
        "profile": [ "http://hl7.org/fhir/us/qicore/StructureDefinition/qicore-encounter" ]
      },
      "status": "finished",
      "class": {
        "system": "http://terminology.hl7.org/CodeSystem/v3-ActCode",
        "code": "IMP",
        "display": "inpatient encounter",
        "userSelected": true
      },
      "type": [ {
        "coding": [ {
          "system": "http://snomed.info/sct",
          "code": "32485007"
        } ]
      } ],
      "subject": {
        "reference": "Patient/ac23e6a6-3f36-49db-9eba-2da744a41c57"
      },
      "period": {
        "start": "2025-10-11T07:31:00+00:00",
        "end": "2025-10-15T11:30:00+00:00"
      },
      "length": {
        "value": 4.0,
        "unit": "days"
      },
      "diagnosis": [ {
        "condition": {
          "reference": "Condition/ischemic-stroke-9f10"
        },
        "use": {
          "coding": [ {
            "system": "http://snomed.info/sct",
            "code": "111297002",
            "display": "Ischemic Stroke"
          } ]
        },
        "rank": 1
      } ]
    },
    "request": {
      "method": "PUT",
      "url": "Encounter/5d41f2adb848464ca836aacb"
    }
  }, {
    "fullUrl": "https://madie.cms.gov/Observation/5d41f2adb848464ca836aac8",
    "resource": {
      "resourceType": "Observation",
      "id": "5d41f2adb848464ca836aac8",
      "meta": {
        "profile": [ "http://hl7.org/fhir/us/qicore/StructureDefinition/qicore-observation" ]
      },
      "status": "final",
      "category": [ {
        "coding": [ {
          "system": "http://terminology.hl7.org/CodeSystem/observation-category",
          "code": "laboratory",
          "display": "Laboratory"
        } ]
      } ],
      "code": {
        "coding": [ {
          "system": "http://loinc.org",
          "code": "34714-6"
        } ]
      },
      "subject": {
        "reference": "Patient/ac23e6a6-3f36-49db-9eba-2da744a41c57"
      },
      "effectivePeriod": {
        "start": "2025-10-10T06:15:00+00:00"
      },
      "issued": "2025-10-10T06:31:00.000+00:00",
      "valueQuantity": {
        "value": 3.6
      }
    },
    "request": {
      "method": "PUT",
      "url": "Observation/5d41f2adb848464ca836aac8"
    }
  }, {
    "fullUrl": "https://madie.cms.gov/Coverage/5e20a3731c76ba6c5896ec23",
    "resource": {
      "resourceType": "Coverage",
      "id": "5e20a3731c76ba6c5896ec23",
      "status": "active",
      "beneficiary": {
        "reference": "Patient/ac23e6a6-3f36-49db-9eba-2da744a41c57"
      },
      "period": {
        "start": "1975-09-26T08:00:00+00:00"
      },
      "payor": [ {
        "reference": "Organization/Org-123456"
      } ]
    },
    "request": {
      "method": "PUT",
      "url": "Coverage/5e20a3731c76ba6c5896ec23"
    }
  }, {
    "fullUrl": "https://madie.cms.gov/Condition/ischemic-stroke-9f10",
    "resource": {
      "resourceType": "Condition",
      "id": "ischemic-stroke-9f10",
      "meta": {
        "profile": [ "http://hl7.org/fhir/us/qicore/StructureDefinition/qicore-condition" ]
      },
      "clinicalStatus": {
        "coding": [ {
          "system": "http://terminology.hl7.org/CodeSystem/condition-clinical",
          "code": "active"
        } ]
      },
      "verificationStatus": {
        "coding": [ {
          "system": "http://terminology.hl7.org/CodeSystem/condition-ver-status",
          "code": "confirmed"
        } ]
      },
      "category": [ {
        "coding": [ {
          "system": "http://terminology.hl7.org/CodeSystem/condition-category",
          "code": "encounter-diagnosis",
          "display": "Encounter Diagnosis"
        } ]
      } ],
      "code": {
        "coding": [ {
          "system": "http://snomed.info/sct",
          "version": "2020-09",
          "code": "111297002",
          "display": "Nonparalytic stroke (disorder)",
          "userSelected": true
        } ]
      },
      "subject": {
        "reference": "Patient/ac23e6a6-3f36-49db-9eba-2da744a41c57"
      },
      "recordedDate": "2025-08-06T08:00:00.000+00:00"
    },
    "request": {
      "method": "PUT",
      "url": "Condition/ischemic-stroke-9f10"
    }
  }, {
    "fullUrl": "https://madie.cms.gov/Organization/123456",
    "resource": {
      "resourceType": "Organization",
      "id": "Org-123456",
      "meta": {
        "profile": [ "http://hl7.org/fhir/us/qicore/StructureDefinition/qicore-organization" ]
      },
      "identifier": [ {
        "use": "temp",
        "system": "urn:oid:2.16.840.1.113883.4.4",
        "value": "21-3259825"
      } ],
      "active": true,
      "type": [ {
        "coding": [ {
          "system": "http://terminology.hl7.org/CodeSystem/organization-type",
          "code": "pay",
          "display": "Payer"
        } ]
      } ],
      "name": "Blue Cross Blue Shield of Texas",
      "telecom": [ {
        "system": "phone",
        "value": "(+1) 972-766-6900"
      } ],
      "address": [ {
        "use": "billing",
        "type": "postal",
        "line": [ "P.O. Box 660044" ],
        "city": "Dallas",
        "state": "TX",
        "postalCode": "75266-0044",
        "country": "USA"
      } ]
    },
    "request": {
      "method": "PUT",
      "url": "Organization/Org-123456"
    }
  }, {
    "fullUrl": "https://madie.cms.gov/MeasureReport/063479b8-a668-4a0a-86a6-8402163b9fa9",
    "resource": {
      "resourceType": "MeasureReport",
      "id": "063479b8-a668-4a0a-86a6-8402163b9fa9",
      "meta": {
        "profile": [ "http://hl7.org/fhir/us/cqfmeasures/StructureDefinition/test-case-cqfm" ]
      },
      "contained": [ {
        "resourceType": "Parameters",
        "id": "b1239393-f5e9-453f-a6f0-de408230ba18-parameters",
        "parameter": [ {
          "name": "subject",
          "valueString": "ac23e6a6-3f36-49db-9eba-2da744a41c57"
        } ]
      } ],
      "extension": [ {
        "url": "http://hl7.org/fhir/us/cqfmeasures/StructureDefinition/cqfm-inputParameters",
        "valueReference": {
          "reference": "#b1239393-f5e9-453f-a6f0-de408230ba18-parameters"
        }
      }, {
        "url": "http://hl7.org/fhir/us/cqfmeasures/StructureDefinition/cqfm-testCaseDescription",
        "valueMarkdown": "Patient receives INR of 3.6 the 1 min  before ED start. ED ends 60 minute before OBS starts. OBS starts on day 2 at midnight. IP on the same day. Testing Day of operator with HospitalizationWithObservation function.\n"
      } ],
      "modifierExtension": [ {
        "url": "http://hl7.org/fhir/us/cqfmeasures/StructureDefinition/cqfm-isTestCase",
        "valueBoolean": true
      } ],
      "status": "complete",
      "type": "individual",
      "measure": "https://madie.cms.gov/Measure/AntithromboticTherapyByEndofHospitalDay2FHIR",
      "period": {
        "start": "2025-01-01",
        "end": "2025-12-31"
      },
      "group": [ {
        "population": [ {
          "code": {
            "coding": [ {
              "system": "http://terminology.hl7.org/CodeSystem/measure-population",
              "code": "initial-population",
              "display": "Initial Population"
            } ]
          },
          "count": 1
        }, {
          "code": {
            "coding": [ {
              "system": "http://terminology.hl7.org/CodeSystem/measure-population",
              "code": "denominator",
              "display": "Denominator"
            } ]
          },
          "count": 1
        }, {
          "code": {
            "coding": [ {
              "system": "http://terminology.hl7.org/CodeSystem/measure-population",
              "code": "denominator-exclusion",
              "display": "Denominator Exclusion"
            } ]
          },
          "count": 0
        }, {
          "code": {
            "coding": [ {
              "system": "http://terminology.hl7.org/CodeSystem/measure-population",
              "code": "numerator",
              "display": "Numerator"
            } ]
          },
          "count": 0
        }, {
          "code": {
            "coding": [ {
              "system": "http://terminology.hl7.org/CodeSystem/measure-population",
              "code": "denominator-exception",
              "display": "Denominator Exception"
            } ]
          },
          "count": 1
        } ]
      } ],
      "evaluatedResource": [ {
        "reference": "Patient/ac23e6a6-3f36-49db-9eba-2da744a41c57"
      }, {
        "reference": "Encounter/5d41f2adb848464ca836aac9"
      }, {
        "reference": "Encounter/5d41f2adb848464ca836aaca"
      }, {
        "reference": "Encounter/5d41f2adb848464ca836aacb"
      }, {
        "reference": "Observation/5d41f2adb848464ca836aac8"
      }, {
        "reference": "Coverage/5e20a3731c76ba6c5896ec23"
      }, {
        "reference": "Condition/ischemic-stroke-9f10"
      }, {
        "reference": "Organization/Org-123456"
      } ]
    },
    "request": {
      "method": "PUT",
      "url": "MeasureReport/063479b8-a668-4a0a-86a6-8402163b9fa9"
    }
  } ]
}