{"resourceType":"Bundle","id":"tests-1f70822b-c513-4c3a-8162-49f0bb9c914b-bundle","type":"transaction","entry":[{"fullUrl":"https://madie.cms.gov/Patient/1f70822b-c513-4c3a-8162-49f0bb9c914b","resource":{"resourceType":"Patient","id":"1f70822b-c513-4c3a-8162-49f0bb9c914b","meta":{"profile":["http://hl7.org/fhir/us/qicore/StructureDefinition/qicore-patient"]},"extension":[{"url":"http://hl7.org/fhir/us/core/StructureDefinition/us-core-race","extension":[{"url":"ombCategory","valueCoding":{"system":"urn:oid:2.16.840.1.113883.6.238","code":"1002-5","display":"American Indian or Alaska Native"}},{"url":"text","valueString":"American Indian or Alaska Native"}]},{"url":"http://hl7.org/fhir/us/core/StructureDefinition/us-core-ethnicity","extension":[{"url":"ombCategory","valueCoding":{"system":"urn:oid:2.16.840.1.113883.6.238","code":"2186-5","display":"Not Hispanic or Latino"}},{"url":"text","valueString":"Not Hispanic or Latino"}]}],"identifier":[{"type":{"coding":[{"system":"http://terminology.hl7.org/CodeSystem/v2-0203","code":"MR"}]},"system":"https://bonnie-fhir.healthit.gov/","value":"3241646431234134355"}],"active":true,"name":[{"use":"usual","family":"DENEXCEPPop2Pass","given":["Carvedilol25MGOralTabletPatRsn"]}],"gender":"male","birthDate":"1953-03-24"},"request":{"method":"PUT","url":"Patient/1f70822b-c513-4c3a-8162-49f0bb9c914b"}},{"fullUrl":"https://madie.cms.gov/Encounter/Encounter-Encounter-2134134133413121146","resource":{"resourceType":"Encounter","id":"Encounter-2134134133413121146","meta":{"profile":["http://hl7.org/fhir/us/qicore/StructureDefinition/qicore-encounter"]},"status":"finished","class":{"system":"http://terminology.hl7.org/CodeSystem/v3-ActCode","code":"AMB","display":"ambulatory encounter"},"type":[{"coding":[{"system":"http://www.ama-assn.org/go/cpt","version":"2023","code":"99205"}]}],"subject":{"reference":"Patient/1f70822b-c513-4c3a-8162-49f0bb9c914b"},"period":{"start":"2025-04-05T06:00:00+00:00","end":"2025-04-05T07:00:00+00:00"}},"request":{"method":"PUT","url":"Encounter/Encounter-2134134133413121146"}},{"fullUrl":"https://madie.cms.gov/Encounter/Encounter-Encounter-541633134134132131","resource":{"resourceType":"Encounter","id":"Encounter-541633134134132131","meta":{"profile":["http://hl7.org/fhir/us/qicore/StructureDefinition/qicore-encounter"]},"status":"finished","class":{"system":"http://terminology.hl7.org/CodeSystem/v3-ActCode","code":"AMB","display":"ambulatory encounter"},"type":[{"coding":[{"system":"http://www.ama-assn.org/go/cpt","version":"2023","code":"99205"}]}],"subject":{"reference":"Patient/1f70822b-c513-4c3a-8162-49f0bb9c914b"},"period":{"start":"2025-07-08T09:00:00+00:00","end":"2025-07-08T09:00:00+00:00"}},"request":{"method":"PUT","url":"Encounter/Encounter-541633134134132131"}},{"fullUrl":"https://madie.cms.gov/Condition/Condition-9675645313413413241","resource":{"resourceType":"Condition","id":"Condition-9675645313413413241","meta":{"profile":["http://hl7.org/fhir/us/qicore/StructureDefinition/qicore-condition"]},"clinicalStatus":{"coding":[{"system":"http://terminology.hl7.org/CodeSystem/condition-clinical","code":"active","display":"Active"}]},"verificationStatus":{"coding":[{"system":"http://terminology.hl7.org/CodeSystem/condition-ver-status","code":"confirmed","display":"Confirmed"}]},"category":[{"coding":[{"system":"http://terminology.hl7.org/CodeSystem/condition-category","code":"problem-list-item","display":"Problem List Item"}]}],"code":{"coding":[{"system":"http://hl7.org/fhir/sid/icd-10-cm","version":"2023","code":"I21.01"}]},"subject":{"reference":"Patient/1f70822b-c513-4c3a-8162-49f0bb9c914b"},"onsetPeriod":{"start":"2022-11-22T07:30:00+00:00","end":"2022-11-22T08:30:00+00:00"}},"request":{"method":"PUT","url":"Condition/Condition-9675645313413413241"}},{"fullUrl":"https://madie.cms.gov/Condition/Condition-4132415413164324152","resource":{"resourceType":"Condition","id":"Condition-4132415413164324152","meta":{"profile":["http://hl7.org/fhir/us/qicore/StructureDefinition/qicore-condition"]},"clinicalStatus":{"coding":[{"system":"http://terminology.hl7.org/CodeSystem/condition-clinical","code":"active","display":"Active"}]},"category":[{"coding":[{"system":"http://terminology.hl7.org/CodeSystem/condition-category","code":"problem-list-item","display":"Problem List Item"}]}],"code":{"coding":[{"system":"http://snomed.info/sct","version":"http://snomed.info/sct/731000124108/version/202303","code":"10365005","display":"Right main coronary artery thrombosis (disorder)"}]},"subject":{"reference":"Patient/1f70822b-c513-4c3a-8162-49f0bb9c914b"},"onsetPeriod":{"start":"2025-01-21T07:00:00.000+00:00"}},"request":{"method":"PUT","url":"Condition/Condition-4132415413164324152"}},{"fullUrl":"https://madie.cms.gov/MedicationRequest/MedicationRequest-3453453456434342342","resource":{"resourceType":"MedicationRequest","id":"MedicationRequest-3453453456434342342","meta":{"profile":["http://hl7.org/fhir/us/qicore/StructureDefinition/qicore-mednotrequested"]},"status":"completed","intent":"order","doNotPerform":true,"medicationCodeableConcept":{"coding":[{"system":"http://www.nlm.nih.gov/research/umls/rxnorm","version":"03062023","code":"200033","display":"carvedilol 25 MG Oral Tablet"}]},"subject":{"reference":"Patient/1f70822b-c513-4c3a-8162-49f0bb9c914b"},"authoredOn":"2025-04-05T06:00:00+00:00","requester":{"reference":"Practitioner/Practitioner-32343131323232432"},"reasonCode":[{"coding":[{"system":"http://snomed.info/sct","version":"http://snomed.info/sct/731000124108/version/20230301","code":"406149000","display":"Medication declined (situation)"}]}]},"request":{"method":"PUT","url":"MedicationRequest/MedicationRequest-3453453456434342342"}},{"fullUrl":"https://madie.cms.gov/Practitioner/Practitioner-32343131323232432","resource":{"resourceType":"Practitioner","id":"Practitioner-32343131323232432","meta":{"profile":["http://hl7.org/fhir/us/qicore/StructureDefinition/qicore-practitioner"]},"identifier":[{"use":"temp","system":"urn:oid:2.16.840.1.113883.4.336","value":"Practitioner-45"}],"active":true,"name":[{"family":"Strangelove","given":["Adam"],"prefix":["Dr"]}],"qualification":[{"identifier":[{"system":"http://example.org/UniversityIdentifier","value":"12345"}],"code":{"coding":[{"system":"http://terminology.hl7.org/CodeSystem/v2-0360|2.7","code":"BS","display":"Bachelor of Science"}],"text":"Bachelor of Science"},"period":{"start":"1995"},"issuer":{"display":"Example University"}}]},"request":{"method":"PUT","url":"Practitioner/Practitioner-32343131323232432"}},{"fullUrl":"https://madie.cms.gov/MeasureReport/9d462e19-53b4-4c10-8956-c7779e9cb7fc","resource":{"resourceType":"MeasureReport","id":"9d462e19-53b4-4c10-8956-c7779e9cb7fc","meta":{"profile":["http://hl7.org/fhir/us/cqfmeasures/StructureDefinition/test-case-cqfm"]},"contained":[{"resourceType":"Parameters","id":"bede4db7-bf03-4be6-badc-38ee23420a51-parameters","parameter":[{"name":"subject","valueString":"1f70822b-c513-4c3a-8162-49f0bb9c914b"}]}],"extension":[{"url":"http://hl7.org/fhir/us/cqfmeasures/StructureDefinition/cqfm-inputParameters","valueReference":{"reference":"#bede4db7-bf03-4be6-badc-38ee23420a51-parameters"}},{"url":"http://hl7.org/fhir/us/cqfmeasures/StructureDefinition/cqfm-testCaseDescription","valueMarkdown":"Pt > 18, 2 visits in MP, MI onset > 2 years b4 MP, CAD onset during MP b4 1st visit, and med not ordered during 1st visit - patient reason *CQL-Execution Issue 296*"}],"modifierExtension":[{"url":"http://hl7.org/fhir/us/cqfmeasures/StructureDefinition/cqfm-isTestCase","valueBoolean":true}],"status":"complete","type":"individual","measure":"https://madie.cms.gov/Measure/CADBetaBlockerTherapyPriorMIorLVSDFHIR","period":{"start":"2025-01-01","end":"2025-12-31"},"group":[{"population":[{"code":{"coding":[{"system":"http://terminology.hl7.org/CodeSystem/measure-population","code":"initial-population","display":"Initial Population"}]},"count":1},{"code":{"coding":[{"system":"http://terminology.hl7.org/CodeSystem/measure-population","code":"denominator","display":"Denominator"}]},"count":0},{"code":{"coding":[{"system":"http://terminology.hl7.org/CodeSystem/measure-population","code":"numerator","display":"Numerator"}]},"count":0},{"code":{"coding":[{"system":"http://terminology.hl7.org/CodeSystem/measure-population","code":"denominator-exception","display":"Denominator Exception"}]},"count":0}]},{"population":[{"code":{"coding":[{"system":"http://terminology.hl7.org/CodeSystem/measure-population","code":"initial-population","display":"Initial Population"}]},"count":1},{"code":{"coding":[{"system":"http://terminology.hl7.org/CodeSystem/measure-population","code":"denominator","display":"Denominator"}]},"count":1},{"code":{"coding":[{"system":"http://terminology.hl7.org/CodeSystem/measure-population","code":"numerator","display":"Numerator"}]},"count":0},{"code":{"coding":[{"system":"http://terminology.hl7.org/CodeSystem/measure-population","code":"denominator-exception","display":"Denominator Exception"}]},"count":0}]}],"evaluatedResource":[{"reference":"Patient/1f70822b-c513-4c3a-8162-49f0bb9c914b"},{"reference":"Encounter/Encounter-2134134133413121146"},{"reference":"Encounter/Encounter-541633134134132131"},{"reference":"Condition/Condition-9675645313413413241"},{"reference":"Condition/Condition-4132415413164324152"},{"reference":"MedicationRequest/MedicationRequest-3453453456434342342"},{"reference":"Practitioner/Practitioner-32343131323232432"}]},"request":{"method":"PUT","url":"MeasureReport/9d462e19-53b4-4c10-8956-c7779e9cb7fc"}}]}