{"resourceType":"Bundle","id":"tests-e64fd85a-d643-423d-9e3f-d4838e181aa9-bundle","type":"transaction","entry":[{"fullUrl":"https://madie.cms.gov/Patient/e64fd85a-d643-423d-9e3f-d4838e181aa9","resource":{"resourceType":"Patient","id":"e64fd85a-d643-423d-9e3f-d4838e181aa9","meta":{"profile":["http://hl7.org/fhir/us/qicore/StructureDefinition/qicore-patient"]},"extension":[{"url":"http://hl7.org/fhir/us/core/StructureDefinition/us-core-race","extension":[{"url":"ombCategory","valueCoding":{"system":"urn:oid:2.16.840.1.113883.6.238","code":"1002-5","display":"American Indian or Alaska Native"}},{"url":"text","valueString":"American Indian or Alaska Native"}]},{"url":"http://hl7.org/fhir/us/core/StructureDefinition/us-core-ethnicity","extension":[{"url":"ombCategory","valueCoding":{"system":"urn:oid:2.16.840.1.113883.6.238","code":"2186-5","display":"Not Hispanic or Latino"}},{"url":"text","valueString":"Not Hispanic or Latino"}]}],"identifier":[{"type":{"coding":[{"system":"http://terminology.hl7.org/CodeSystem/v2-0203","code":"MR"}]},"system":"https://bonnie-fhir.healthit.gov/","value":"7846135168496841685"}],"active":true,"name":[{"use":"usual","family":"NUMERPop2Pass","given":["BetaBlockerOrderEachEnc"]}],"gender":"male","birthDate":"1982-09-11"},"request":{"method":"PUT","url":"Patient/e64fd85a-d643-423d-9e3f-d4838e181aa9"}},{"fullUrl":"https://madie.cms.gov/Encounter/3254976513541684634","resource":{"resourceType":"Encounter","id":"3254976513541684634","meta":{"profile":["http://hl7.org/fhir/us/qicore/StructureDefinition/qicore-encounter"]},"status":"finished","class":{"system":"http://terminology.hl7.org/CodeSystem/v3-ActCode","code":"AMB","display":"ambulatory encounter"},"type":[{"coding":[{"system":"http://snomed.info/sct","version":"http://snomed.info/sct/731000124108/version/20230901","code":"185463005"}]}],"subject":{"reference":"Patient/e64fd85a-d643-423d-9e3f-d4838e181aa9"},"period":{"start":"2025-08-16T16:00:00+00:00","end":"2025-08-16T17:00:00+00:00"}},"request":{"method":"PUT","url":"Encounter/3254976513541684634"}},{"fullUrl":"https://madie.cms.gov/Encounter/6346846846351351","resource":{"resourceType":"Encounter","id":"6346846846351351","meta":{"profile":["http://hl7.org/fhir/us/qicore/StructureDefinition/qicore-encounter"]},"status":"finished","class":{"system":"http://terminology.hl7.org/CodeSystem/v3-ActCode","code":"AMB","display":"ambulatory encounter"},"type":[{"coding":[{"system":"http://www.ama-assn.org/go/cpt","version":"2023","code":"99205"}]}],"subject":{"reference":"Patient/e64fd85a-d643-423d-9e3f-d4838e181aa9"},"period":{"start":"2025-12-03T16:45:00.000+00:00","end":"2025-12-03T17:45:00.000+00:00"}},"request":{"method":"PUT","url":"Encounter/6346846846351351"}},{"fullUrl":"https://madie.cms.gov/Condition/5c954d9db848462de0ae6f9d","resource":{"resourceType":"Condition","id":"5c954d9db848462de0ae6f9d","meta":{"profile":["http://hl7.org/fhir/us/qicore/StructureDefinition/qicore-condition"]},"clinicalStatus":{"coding":[{"system":"http://terminology.hl7.org/CodeSystem/condition-clinical","code":"active","display":"Active"}]},"verificationStatus":{"coding":[{"system":"http://terminology.hl7.org/CodeSystem/condition-ver-status","code":"confirmed","display":"Confirmed"}]},"category":[{"coding":[{"system":"http://terminology.hl7.org/CodeSystem/condition-category","code":"problem-list-item","display":"Problem List Item"}]}],"code":{"coding":[{"system":"http://hl7.org/fhir/sid/icd-10-cm","version":"2020","code":"I21.09"}]},"subject":{"reference":"Patient/e64fd85a-d643-423d-9e3f-d4838e181aa9"},"onsetPeriod":{"start":"2025-12-01T16:45:00+00:00","end":"2025-12-01T17:00:00+00:00"}},"request":{"method":"PUT","url":"Condition/5c954d9db848462de0ae6f9d"}},{"fullUrl":"https://madie.cms.gov/MedicationRequest/5c954d9db848462de0ae6fa1","resource":{"resourceType":"MedicationRequest","id":"5c954d9db848462de0ae6fa1","meta":{"profile":["http://hl7.org/fhir/us/qicore/StructureDefinition/qicore-medicationrequest"]},"status":"completed","intent":"order","medicationCodeableConcept":{"coding":[{"system":"http://www.nlm.nih.gov/research/umls/rxnorm","version":"03062023","code":"1234256","display":"4 ML labetalol hydrochloride 5 MG/ML Cartridge"}]},"subject":{"reference":"Patient/e64fd85a-d643-423d-9e3f-d4838e181aa9"},"authoredOn":"2025-08-16T16:00:00.000+00:00","requester":{"reference":"Practitioner/1351644115135131"},"dosageInstruction":[{"timing":{"repeat":{"boundsPeriod":{"start":"2025-08-16T16:00:00.000+00:00","end":"2025-12-02T16:00:00.000+00:00"}}}}]},"request":{"method":"PUT","url":"MedicationRequest/5c954d9db848462de0ae6fa1"}},{"fullUrl":"https://madie.cms.gov/Practitioner/1351644115135131","resource":{"resourceType":"Practitioner","id":"1351644115135131","meta":{"profile":["http://hl7.org/fhir/us/qicore/StructureDefinition/qicore-practitioner"]},"identifier":[{"use":"temp","system":"urn:oid:2.16.840.1.113883.4.336","value":"Practitioner-23"}],"active":true,"name":[{"family":"Careful","given":["Adam"],"prefix":["Dr"]}],"address":[{"use":"home","line":["534 Erewhon St"],"city":"PleasantVille","state":"UT","postalCode":"84414"}],"qualification":[{"identifier":[{"system":"http://example.org/UniversityIdentifier","value":"12345"}],"code":{"coding":[{"system":"http://terminology.hl7.org/CodeSystem/v2-0360|2.7","code":"BS","display":"Bachelor of Science"}],"text":"Bachelor of Science"},"period":{"start":"1995"},"issuer":{"display":"Example University"}}]},"request":{"method":"PUT","url":"Practitioner/1351644115135131"}},{"fullUrl":"https://madie.cms.gov/MedicationRequest/5c954d9db848462de0ae6fa2","resource":{"resourceType":"MedicationRequest","id":"5c954d9db848462de0ae6fa2","meta":{"profile":["http://hl7.org/fhir/us/qicore/StructureDefinition/qicore-medicationrequest"]},"status":"active","intent":"order","medicationCodeableConcept":{"coding":[{"system":"http://www.nlm.nih.gov/research/umls/rxnorm","version":"03062023","code":"198007","display":"nadolol 40 MG Oral Tablet"}]},"subject":{"reference":"Patient/e64fd85a-d643-423d-9e3f-d4838e181aa9"},"authoredOn":"2025-12-03T16:45:00.000+00:00","requester":{"reference":"Practitioner/1351644115135131"},"dosageInstruction":[{"timing":{"repeat":{"boundsPeriod":{"start":"2025-12-03T16:45:00.000+00:00","end":"2026-04-04T16:45:00.000+00:00"}}}}]},"request":{"method":"PUT","url":"MedicationRequest/5c954d9db848462de0ae6fa2"}},{"fullUrl":"https://madie.cms.gov/Condition/135498494165131","resource":{"resourceType":"Condition","id":"135498494165131","meta":{"profile":["http://hl7.org/fhir/us/qicore/StructureDefinition/qicore-condition"]},"clinicalStatus":{"coding":[{"system":"http://terminology.hl7.org/CodeSystem/condition-clinical","code":"active","display":"Active"}]},"verificationStatus":{"coding":[{"system":"http://terminology.hl7.org/CodeSystem/condition-ver-status","code":"confirmed","display":"Confirmed"}]},"category":[{"coding":[{"system":"http://terminology.hl7.org/CodeSystem/condition-category","code":"problem-list-item","display":"Problem List Item"}]}],"code":{"coding":[{"system":"http://snomed.info/sct","version":"http://snomed.info/sct/731000124108/version/202303","code":"10365005","display":"Right main coronary artery thrombosis (disorder)"}]},"subject":{"reference":"Patient/e64fd85a-d643-423d-9e3f-d4838e181aa9"},"onsetPeriod":{"start":"2025-12-02T16:45:00.000+00:00"}},"request":{"method":"PUT","url":"Condition/135498494165131"}},{"fullUrl":"https://madie.cms.gov/MeasureReport/1c908b28-256b-4c9d-abb0-424fe2b38e5d","resource":{"resourceType":"MeasureReport","id":"1c908b28-256b-4c9d-abb0-424fe2b38e5d","meta":{"profile":["http://hl7.org/fhir/us/cqfmeasures/StructureDefinition/test-case-cqfm"]},"contained":[{"resourceType":"Parameters","id":"8188b01c-e270-4466-9a53-28d01189949d-parameters","parameter":[{"name":"subject","valueString":"e64fd85a-d643-423d-9e3f-d4838e181aa9"}]}],"extension":[{"url":"http://hl7.org/fhir/us/cqfmeasures/StructureDefinition/cqfm-inputParameters","valueReference":{"reference":"#8188b01c-e270-4466-9a53-28d01189949d-parameters"}},{"url":"http://hl7.org/fhir/us/cqfmeasures/StructureDefinition/cqfm-testCaseDescription","valueMarkdown":"Pt > 18, has two qualifying ambulatory visits, a CAD Encounter, no history of moderate or severe LVSD, a prior MI and beta blocker therapy ordered during 2nd visit"}],"modifierExtension":[{"url":"http://hl7.org/fhir/us/cqfmeasures/StructureDefinition/cqfm-isTestCase","valueBoolean":true}],"status":"complete","type":"individual","measure":"https://madie.cms.gov/Measure/CADBetaBlockerTherapyPriorMIorLVSDFHIR","period":{"start":"2025-01-01","end":"2025-12-31"},"group":[{"population":[{"code":{"coding":[{"system":"http://terminology.hl7.org/CodeSystem/measure-population","code":"initial-population","display":"Initial Population"}]},"count":1},{"code":{"coding":[{"system":"http://terminology.hl7.org/CodeSystem/measure-population","code":"denominator","display":"Denominator"}]},"count":0},{"code":{"coding":[{"system":"http://terminology.hl7.org/CodeSystem/measure-population","code":"numerator","display":"Numerator"}]},"count":0},{"code":{"coding":[{"system":"http://terminology.hl7.org/CodeSystem/measure-population","code":"denominator-exception","display":"Denominator Exception"}]},"count":0}]},{"population":[{"code":{"coding":[{"system":"http://terminology.hl7.org/CodeSystem/measure-population","code":"initial-population","display":"Initial Population"}]},"count":1},{"code":{"coding":[{"system":"http://terminology.hl7.org/CodeSystem/measure-population","code":"denominator","display":"Denominator"}]},"count":1},{"code":{"coding":[{"system":"http://terminology.hl7.org/CodeSystem/measure-population","code":"numerator","display":"Numerator"}]},"count":1},{"code":{"coding":[{"system":"http://terminology.hl7.org/CodeSystem/measure-population","code":"denominator-exception","display":"Denominator Exception"}]},"count":0}]}],"evaluatedResource":[{"reference":"Patient/e64fd85a-d643-423d-9e3f-d4838e181aa9"},{"reference":"Encounter/3254976513541684634"},{"reference":"Encounter/6346846846351351"},{"reference":"Condition/5c954d9db848462de0ae6f9d"},{"reference":"MedicationRequest/5c954d9db848462de0ae6fa1"},{"reference":"Practitioner/1351644115135131"},{"reference":"MedicationRequest/5c954d9db848462de0ae6fa2"},{"reference":"Condition/135498494165131"}]},"request":{"method":"PUT","url":"MeasureReport/1c908b28-256b-4c9d-abb0-424fe2b38e5d"}}]}