{"resourceType":"Bundle","id":"tests-dd4e465a-3796-4d5d-af53-3e2ab1e4041b-bundle","type":"transaction","entry":[{"fullUrl":"https://madie.cms.gov/Patient/dd4e465a-3796-4d5d-af53-3e2ab1e4041b","resource":{"resourceType":"Patient","id":"dd4e465a-3796-4d5d-af53-3e2ab1e4041b","meta":{"profile":["http://hl7.org/fhir/us/qicore/StructureDefinition/qicore-patient"]},"extension":[{"url":"http://hl7.org/fhir/us/core/StructureDefinition/us-core-race","extension":[{"url":"ombCategory","valueCoding":{"system":"urn:oid:2.16.840.1.113883.6.238","code":"1002-5","display":"American Indian or Alaska Native"}},{"url":"text","valueString":"American Indian or Alaska Native"}]},{"url":"http://hl7.org/fhir/us/core/StructureDefinition/us-core-ethnicity","extension":[{"url":"ombCategory","valueCoding":{"system":"urn:oid:2.16.840.1.113883.6.238","code":"2186-5","display":"Not Hispanic or Latino"}},{"url":"text","valueString":"Not Hispanic or Latino"}]}],"identifier":[{"type":{"coding":[{"system":"http://terminology.hl7.org/CodeSystem/v2-0203","code":"MR"}]},"system":"https://bonnie-fhir.healthit.gov/","value":"24649676746413464"}],"active":true,"name":[{"use":"usual","family":"DENEXCEPPop1Pass","given":["Carvedilol25MGOralTabletPatRsn"]}],"gender":"male","birthDate":"1967-12-14"},"request":{"method":"PUT","url":"Patient/dd4e465a-3796-4d5d-af53-3e2ab1e4041b"}},{"fullUrl":"https://madie.cms.gov/Encounter/Encounter-Encounter-341345694634163434","resource":{"resourceType":"Encounter","id":"Encounter-341345694634163434","meta":{"profile":["http://hl7.org/fhir/us/qicore/StructureDefinition/qicore-encounter"]},"status":"finished","class":{"system":"http://terminology.hl7.org/CodeSystem/v3-ActCode","code":"AMB","display":"ambulatory"},"type":[{"coding":[{"system":"http://www.ama-assn.org/go/cpt","version":"2023","code":"99202","display":"Office or other outpatient visit for the evaluation and management of a new patient, which requires a medically appropriate history and/or examination and straightforward medical decision making. When using time for code selection, 15-29 minutes of total time is spent on the date of the encounter."}]}],"subject":{"reference":"Patient/dd4e465a-3796-4d5d-af53-3e2ab1e4041b"},"period":{"start":"2025-02-01T12:00:00+00:00","end":"2025-02-01T13:00:00+00:00"},"length":{"value":0,"unit":"days"}},"request":{"method":"PUT","url":"Encounter/Encounter-341345694634163434"}},{"fullUrl":"https://madie.cms.gov/Encounter/Encounter-Encounter-34645931347324354973","resource":{"resourceType":"Encounter","id":"Encounter-34645931347324354973","meta":{"profile":["http://hl7.org/fhir/us/qicore/StructureDefinition/qicore-encounter"]},"status":"finished","class":{"system":"http://terminology.hl7.org/CodeSystem/v3-ActCode","code":"AMB","display":"ambulatory"},"type":[{"coding":[{"system":"http://www.ama-assn.org/go/cpt","version":"2023","code":"99212","display":"Office or other outpatient visit for the evaluation and management of an established patient, which requires a medically appropriate history and/or examination and straightforward medical decision making. When using time for code selection, 10-19 minutes of total time is spent on the date of the encounter."}]}],"subject":{"reference":"Patient/dd4e465a-3796-4d5d-af53-3e2ab1e4041b"},"period":{"start":"2025-10-15T12:15:00+00:00","end":"2025-10-15T13:15:00+00:00"},"length":{"value":0,"unit":"days"}},"request":{"method":"PUT","url":"Encounter/Encounter-34645931347324354973"}},{"fullUrl":"https://madie.cms.gov/Condition/Condition-349496313643424243","resource":{"resourceType":"Condition","id":"Condition-349496313643424243","meta":{"profile":["http://hl7.org/fhir/us/qicore/StructureDefinition/qicore-condition"]},"clinicalStatus":{"coding":[{"system":"http://terminology.hl7.org/CodeSystem/condition-clinical","code":"active","display":"Active"}]},"verificationStatus":{"coding":[{"system":"http://terminology.hl7.org/CodeSystem/condition-ver-status","code":"confirmed","display":"Confirmed"}]},"category":[{"coding":[{"system":"http://terminology.hl7.org/CodeSystem/condition-category","code":"problem-list-item","display":"Problem List Item"}]}],"severity":{"coding":[{"system":"http://snomed.info/sct","version":"http://snomed.info/sct/731000124108/version/202303","code":"24484000","display":"Severe (severity modifier) (qualifier value)"}]},"code":{"coding":[{"system":"http://snomed.info/sct","version":"http://snomed.info/sct/731000124108/version/202303","code":"134401001"}]},"subject":{"reference":"Patient/dd4e465a-3796-4d5d-af53-3e2ab1e4041b"},"onsetPeriod":{"start":"2025-01-31T12:00:00+00:00"}},"request":{"method":"PUT","url":"Condition/Condition-349496313643424243"}},{"fullUrl":"https://madie.cms.gov/Condition/Condition-346459685612341343","resource":{"resourceType":"Condition","id":"Condition-346459685612341343","meta":{"profile":["http://hl7.org/fhir/us/qicore/StructureDefinition/qicore-condition"]},"clinicalStatus":{"coding":[{"system":"http://terminology.hl7.org/CodeSystem/condition-clinical","code":"active","display":"Active"}]},"verificationStatus":{"coding":[{"system":"http://terminology.hl7.org/CodeSystem/condition-ver-status","code":"confirmed","display":"Confirmed"}]},"category":[{"coding":[{"system":"http://terminology.hl7.org/CodeSystem/condition-category","code":"problem-list-item","display":"Problem List Item"}]}],"code":{"coding":[{"system":"http://snomed.info/sct","version":"http://snomed.info/sct/731000124108/version/202303","code":"10365005","display":"Right main coronary artery thrombosis (disorder)"}]},"subject":{"reference":"Patient/dd4e465a-3796-4d5d-af53-3e2ab1e4041b"},"onsetPeriod":{"start":"2025-10-16T00:00:00+00:00"}},"request":{"method":"PUT","url":"Condition/Condition-346459685612341343"}},{"fullUrl":"https://madie.cms.gov/Condition/Condition-35264597641634645345","resource":{"resourceType":"Condition","id":"Condition-35264597641634645345","meta":{"profile":["http://hl7.org/fhir/us/qicore/StructureDefinition/qicore-condition"]},"clinicalStatus":{"coding":[{"system":"http://terminology.hl7.org/CodeSystem/condition-clinical","code":"active","display":"Active"}]},"category":[{"coding":[{"system":"http://terminology.hl7.org/CodeSystem/condition-category","code":"problem-list-item","display":"Problem List Item"}]}],"code":{"coding":[{"system":"http://snomed.info/sct","version":"http://snomed.info/sct/731000124108/version/202303","code":"441509002","display":"Cardiac pacemaker in situ"}]},"subject":{"reference":"Patient/dd4e465a-3796-4d5d-af53-3e2ab1e4041b"},"onsetPeriod":{"start":"2025-10-16T00:00:00+00:00"}},"request":{"method":"PUT","url":"Condition/Condition-35264597641634645345"}},{"fullUrl":"https://madie.cms.gov/MedicationRequest/MedicationRequest-346346431316343413","resource":{"resourceType":"MedicationRequest","id":"MedicationRequest-346346431316343413","meta":{"profile":["http://hl7.org/fhir/us/qicore/StructureDefinition/qicore-mednotrequested"]},"status":"completed","intent":"order","doNotPerform":true,"medicationCodeableConcept":{"coding":[{"system":"http://www.nlm.nih.gov/research/umls/rxnorm","version":"04032023","code":"200033","display":"carvedilol 25 MG Oral Tablet"}]},"subject":{"reference":"Patient/dd4e465a-3796-4d5d-af53-3e2ab1e4041b"},"authoredOn":"2025-02-01T12:00:00+00:00","requester":{"reference":"Practitioner/Practitioner-634985967431341341"},"reasonCode":[{"coding":[{"system":"http://snomed.info/sct","version":"http://snomed.info/sct/731000124108/version/202303","code":"406149000","display":"Medication declined (situation)"}]}]},"request":{"method":"PUT","url":"MedicationRequest/MedicationRequest-346346431316343413"}},{"fullUrl":"https://madie.cms.gov/Practitioner/Practitioner-634985967431341341","resource":{"resourceType":"Practitioner","id":"Practitioner-634985967431341341","meta":{"profile":["http://hl7.org/fhir/us/qicore/StructureDefinition/qicore-practitioner"]},"identifier":[{"use":"temp","system":"urn:oid:2.16.840.1.113883.4.336","value":"Practitioner-45"}],"active":true,"name":[{"family":"Strangelove","given":["Adam"],"prefix":["Dr"]}],"qualification":[{"identifier":[{"system":"http://example.org/UniversityIdentifier","value":"12345"}],"code":{"coding":[{"system":"http://terminology.hl7.org/CodeSystem/v2-0360","version":"2.7","code":"BS","display":"Bachelor of Science"}],"text":"Bachelor of Science"},"period":{"start":"1995"},"issuer":{"display":"Example University"}}]},"request":{"method":"PUT","url":"Practitioner/Practitioner-634985967431341341"}},{"fullUrl":"https://madie.cms.gov/Procedure/Procedure-34196496313131436645","resource":{"resourceType":"Procedure","id":"Procedure-34196496313131436645","meta":{"profile":["http://hl7.org/fhir/us/qicore/StructureDefinition/qicore-procedure"]},"extension":[{"url":"http://hl7.org/fhir/us/qicore/StructureDefinition/qicore-recorded","valueDateTime":"2025-02-01T12:00:00+00:00"}],"status":"completed","code":{"coding":[{"system":"http://www.ama-assn.org/go/cpt","version":"2023","code":"33536"}]},"subject":{"reference":"Patient/dd4e465a-3796-4d5d-af53-3e2ab1e4041b"},"performedPeriod":{"start":"2025-02-01T12:00:00+00:00","end":"2025-02-01T12:00:00+00:00"}},"request":{"method":"PUT","url":"Procedure/Procedure-34196496313131436645"}},{"fullUrl":"https://madie.cms.gov/MeasureReport/32bcf32b-881b-47d9-8483-869f455ade18","resource":{"resourceType":"MeasureReport","id":"32bcf32b-881b-47d9-8483-869f455ade18","meta":{"profile":["http://hl7.org/fhir/us/cqfmeasures/StructureDefinition/test-case-cqfm"]},"contained":[{"resourceType":"Parameters","id":"98865d11-867a-4b9b-8ec1-a19dae523036-parameters","parameter":[{"name":"subject","valueString":"dd4e465a-3796-4d5d-af53-3e2ab1e4041b"}]}],"extension":[{"url":"http://hl7.org/fhir/us/cqfmeasures/StructureDefinition/cqfm-inputParameters","valueReference":{"reference":"#98865d11-867a-4b9b-8ec1-a19dae523036-parameters"}},{"url":"http://hl7.org/fhir/us/cqfmeasures/StructureDefinition/cqfm-testCaseDescription","valueMarkdown":"Pt > 18, 2 visits in MP, Severe LVSD onset during MP b4 1st visit, CAD and Cardia Pacer in Situ (both with onset after 2nd visit (next day 12 AM)), and Med not ordered during 1st visit *CQL-Execution Issue 296*,"}],"modifierExtension":[{"url":"http://hl7.org/fhir/us/cqfmeasures/StructureDefinition/cqfm-isTestCase","valueBoolean":true}],"status":"complete","type":"individual","measure":"https://madie.cms.gov/Measure/CADBetaBlockerTherapyPriorMIorLVSDFHIR","period":{"start":"2025-01-01","end":"2025-12-31"},"group":[{"population":[{"code":{"coding":[{"system":"http://terminology.hl7.org/CodeSystem/measure-population","code":"initial-population","display":"Initial Population"}]},"count":1},{"code":{"coding":[{"system":"http://terminology.hl7.org/CodeSystem/measure-population","code":"denominator","display":"Denominator"}]},"count":1},{"code":{"coding":[{"system":"http://terminology.hl7.org/CodeSystem/measure-population","code":"numerator","display":"Numerator"}]},"count":0},{"code":{"coding":[{"system":"http://terminology.hl7.org/CodeSystem/measure-population","code":"denominator-exception","display":"Denominator Exception"}]},"count":0}]},{"population":[{"code":{"coding":[{"system":"http://terminology.hl7.org/CodeSystem/measure-population","code":"initial-population","display":"Initial Population"}]},"count":1},{"code":{"coding":[{"system":"http://terminology.hl7.org/CodeSystem/measure-population","code":"denominator","display":"Denominator"}]},"count":0},{"code":{"coding":[{"system":"http://terminology.hl7.org/CodeSystem/measure-population","code":"numerator","display":"Numerator"}]},"count":0},{"code":{"coding":[{"system":"http://terminology.hl7.org/CodeSystem/measure-population","code":"denominator-exception","display":"Denominator Exception"}]},"count":0}]}],"evaluatedResource":[{"reference":"Patient/dd4e465a-3796-4d5d-af53-3e2ab1e4041b"},{"reference":"Encounter/Encounter-341345694634163434"},{"reference":"Encounter/Encounter-34645931347324354973"},{"reference":"Condition/Condition-349496313643424243"},{"reference":"Condition/Condition-346459685612341343"},{"reference":"Condition/Condition-35264597641634645345"},{"reference":"MedicationRequest/MedicationRequest-346346431316343413"},{"reference":"Practitioner/Practitioner-634985967431341341"},{"reference":"Procedure/Procedure-34196496313131436645"}]},"request":{"method":"PUT","url":"MeasureReport/32bcf32b-881b-47d9-8483-869f455ade18"}}]}