{"resourceType":"Bundle","id":"tests-40500bf1-592a-4afd-8b0d-cc1fe3947190-bundle","type":"transaction","entry":[{"fullUrl":"https://madie.cms.gov/Patient/40500bf1-592a-4afd-8b0d-cc1fe3947190","resource":{"resourceType":"Patient","id":"40500bf1-592a-4afd-8b0d-cc1fe3947190","meta":{"profile":["http://hl7.org/fhir/us/qicore/StructureDefinition/qicore-patient"]},"extension":[{"url":"http://hl7.org/fhir/us/core/StructureDefinition/us-core-race","extension":[{"url":"ombCategory","valueCoding":{"system":"urn:oid:2.16.840.1.113883.6.238","code":"1002-5","display":"American Indian or Alaska Native"}},{"url":"text","valueString":"American Indian or Alaska Native"}]},{"url":"http://hl7.org/fhir/us/core/StructureDefinition/us-core-ethnicity","extension":[{"url":"ombCategory","valueCoding":{"system":"urn:oid:2.16.840.1.113883.6.238","code":"2186-5","display":"Not Hispanic or Latino"}},{"url":"text","valueString":"Not Hispanic or Latino"}]}],"identifier":[{"type":{"coding":[{"system":"http://terminology.hl7.org/CodeSystem/v2-0203","code":"MR"}]},"system":"https://bonnie-fhir.healthit.gov/","value":"1354641313165131"}],"active":true,"name":[{"use":"usual","family":"DENOMPop1Fail","given":["NoQualifyingLVSD"]}],"gender":"female","birthDate":"1957-11-01"},"request":{"method":"PUT","url":"Patient/40500bf1-592a-4afd-8b0d-cc1fe3947190"}},{"fullUrl":"https://madie.cms.gov/Encounter/35131351331313","resource":{"resourceType":"Encounter","id":"a4ffcac1-4e95-4b21-bfb0-541d44e04d37","meta":{"profile":["http://hl7.org/fhir/us/qicore/StructureDefinition/qicore-encounter"]},"status":"finished","class":{"system":"http://terminology.hl7.org/CodeSystem/v3-ActCode","code":"AMB","display":"ambulatory"},"type":[{"coding":[{"system":"http://www.ama-assn.org/go/cpt","version":"2024","code":"99202","display":"Office or other outpatient visit for the evaluation and management of a new patient, which requires a medically appropriate history and/or examination and straightforward medical decision making. When using time for code selection, 15-29 minutes of total time is spent on the date of the encounter."}]}],"subject":{"reference":"Patient/40500bf1-592a-4afd-8b0d-cc1fe3947190"},"period":{"start":"2025-01-22T11:30:00+00:00","end":"2025-01-22T12:30:00+00:00"},"length":{"value":0,"unit":"days"}},"request":{"method":"PUT","url":"Encounter/a4ffcac1-4e95-4b21-bfb0-541d44e04d37"}},{"fullUrl":"https://madie.cms.gov/Encounter/8768435146133","resource":{"resourceType":"Encounter","id":"4086e1c6-1256-43d1-a1ef-ffe0464c3be2","meta":{"profile":["http://hl7.org/fhir/us/qicore/StructureDefinition/qicore-encounter"]},"status":"finished","class":{"system":"http://terminology.hl7.org/CodeSystem/v3-ActCode","code":"AMB","display":"ambulatory"},"type":[{"coding":[{"system":"http://www.ama-assn.org/go/cpt","version":"2024","code":"99212","display":"Office or other outpatient visit for the evaluation and management of an established patient, which requires a medically appropriate history and/or examination and straightforward medical decision making. When using time for code selection, 10-19 minutes of total time is spent on the date of the encounter."}]}],"subject":{"reference":"Patient/40500bf1-592a-4afd-8b0d-cc1fe3947190"},"period":{"start":"2025-11-22T11:30:00+00:00","end":"2025-11-22T12:30:00+00:00"},"length":{"value":0,"unit":"days"}},"request":{"method":"PUT","url":"Encounter/4086e1c6-1256-43d1-a1ef-ffe0464c3be2"}},{"fullUrl":"https://madie.cms.gov/Encounter/7894351684968","resource":{"resourceType":"Encounter","id":"6688eadf-ed12-4bf0-a596-5c3f93d77075","meta":{"profile":["http://hl7.org/fhir/us/qicore/StructureDefinition/qicore-encounter"]},"status":"finished","class":{"system":"http://terminology.hl7.org/CodeSystem/v3-ActCode","code":"IMP","display":"inpatient encounter"},"type":[{"coding":[{"system":"http://snomed.info/sctt","version":"http://snomed.info/sct/731000124108/version/20240301","code":"10378005","display":"Hospital admission, emergency, from emergency room, accidental injury (procedure)"}]}],"subject":{"reference":"Patient/40500bf1-592a-4afd-8b0d-cc1fe3947190"},"period":{"start":"2025-12-22T11:30:00+00:00","end":"2025-12-22T12:30:00+00:00"},"length":{"value":0,"unit":"days"}},"request":{"method":"PUT","url":"Encounter/6688eadf-ed12-4bf0-a596-5c3f93d77075"}},{"fullUrl":"https://madie.cms.gov/Condition/98461313161310","resource":{"resourceType":"Condition","id":"36c0e8ac-3c11-4dbd-8b4d-cee6d6572f74","meta":{"profile":["http://hl7.org/fhir/us/qicore/StructureDefinition/qicore-condition"]},"clinicalStatus":{"coding":[{"system":"http://terminology.hl7.org/CodeSystem/condition-clinical","code":"active","display":"Active"}]},"verificationStatus":{"coding":[{"system":"http://terminology.hl7.org/CodeSystem/condition-ver-status","code":"confirmed","display":"Confirmed"}]},"category":[{"coding":[{"system":"http://terminology.hl7.org/CodeSystem/condition-category","code":"problem-list-item","display":"Problem List Item"}]}],"code":{"coding":[{"system":"http://snomed.info/sct","version":"http://snomed.info/sct/731000124108/version/20240301","code":"10365005","display":"Right main coronary artery thrombosis (disorder)"}]},"subject":{"reference":"Patient/40500bf1-592a-4afd-8b0d-cc1fe3947190"},"onsetPeriod":{"start":"2025-01-21T07:00:00.000+00:00"}},"request":{"method":"PUT","url":"Condition/36c0e8ac-3c11-4dbd-8b4d-cee6d6572f74"}},{"fullUrl":"https://madie.cms.gov/Condition/35413513213113","resource":{"resourceType":"Condition","id":"174ac27f-70ca-4dde-8c7d-d34a2d9671a3","meta":{"profile":["http://hl7.org/fhir/us/qicore/StructureDefinition/qicore-condition"]},"clinicalStatus":{"coding":[{"system":"http://terminology.hl7.org/CodeSystem/condition-clinical","code":"active","display":"Active"}]},"verificationStatus":{"coding":[{"system":"http://terminology.hl7.org/CodeSystem/condition-ver-status","code":"confirmed","display":"Confirmed"}]},"category":[{"coding":[{"system":"http://terminology.hl7.org/CodeSystem/condition-category","code":"problem-list-item","display":"Problem List Item"}]}],"code":{"coding":[{"system":"http://snomed.info/sct","version":"http://snomed.info/sct/731000124108/version/20240301","code":"10365005","display":"Right main coronary artery thrombosis (disorder)"}]},"subject":{"reference":"Patient/40500bf1-592a-4afd-8b0d-cc1fe3947190"},"onsetPeriod":{"start":"2025-11-24T07:00:00.000+00:00"}},"request":{"method":"PUT","url":"Condition/174ac27f-70ca-4dde-8c7d-d34a2d9671a3"}},{"fullUrl":"https://madie.cms.gov/Condition/684613163161651","resource":{"resourceType":"Condition","id":"66e6261c-3d5c-4951-9f2b-579141df1427","meta":{"profile":["http://hl7.org/fhir/us/qicore/StructureDefinition/qicore-condition"]},"clinicalStatus":{"coding":[{"system":"http://terminology.hl7.org/CodeSystem/condition-clinical","code":"active","display":"Active"}]},"verificationStatus":{"coding":[{"system":"http://terminology.hl7.org/CodeSystem/condition-ver-status","code":"confirmed","display":"Confirmed"}]},"category":[{"coding":[{"system":"http://terminology.hl7.org/CodeSystem/condition-category","code":"problem-list-item","display":"Problem List Item"}]}],"severity":{"coding":[{"system":"http://snomed.info/sct","version":"http://snomed.info/sct/731000124108/version/20240301","code":"24484000","display":"Severe (severity modifier) (qualifier value)"}]},"code":{"coding":[{"system":"http://snomed.info/sct","version":"http://snomed.info/sct/731000124108/version/20240301","code":"134401001"}]},"subject":{"reference":"Patient/40500bf1-592a-4afd-8b0d-cc1fe3947190"},"onsetPeriod":{"start":"2025-12-22T11:30:00+00:00"}},"request":{"method":"PUT","url":"Condition/66e6261c-3d5c-4951-9f2b-579141df1427"}},{"fullUrl":"https://madie.cms.gov/Condition/65416351313133","resource":{"resourceType":"Condition","id":"4d4d59e4-5ff0-4c52-b206-c1cc10f7bc81","meta":{"profile":["http://hl7.org/fhir/us/qicore/StructureDefinition/qicore-condition"]},"clinicalStatus":{"coding":[{"system":"http://terminology.hl7.org/CodeSystem/condition-clinical","code":"active","display":"Active"}]},"category":[{"coding":[{"system":"http://terminology.hl7.org/CodeSystem/condition-category","code":"problem-list-item","display":"Problem List Item"}]}],"code":{"coding":[{"system":"http://snomed.info/sct","version":"http://snomed.info/sct/731000124108/version/20240301","code":"981000124106","display":"Moderate left ventricular systolic dysfunction (disorder)"}]},"subject":{"reference":"Patient/40500bf1-592a-4afd-8b0d-cc1fe3947190"},"onsetPeriod":{"start":"2025-12-22T11:30:00.000+00:00"}},"request":{"method":"PUT","url":"Condition/4d4d59e4-5ff0-4c52-b206-c1cc10f7bc81"}},{"fullUrl":"https://madie.cms.gov/MeasureReport/454c8343-0962-4f6d-bb0e-b157fce44d9e","resource":{"resourceType":"MeasureReport","id":"454c8343-0962-4f6d-bb0e-b157fce44d9e","meta":{"profile":["http://hl7.org/fhir/us/cqfmeasures/StructureDefinition/test-case-cqfm"]},"contained":[{"resourceType":"Parameters","id":"74663235-0399-4d63-bb6f-70480c81432e-parameters","parameter":[{"name":"subject","valueString":"40500bf1-592a-4afd-8b0d-cc1fe3947190"}]}],"extension":[{"url":"http://hl7.org/fhir/us/cqfmeasures/StructureDefinition/cqfm-inputParameters","valueReference":{"reference":"#74663235-0399-4d63-bb6f-70480c81432e-parameters"}},{"url":"http://hl7.org/fhir/us/cqfmeasures/StructureDefinition/cqfm-testCaseDescription","valueMarkdown":"Pt > 18, 2 amb. visits during MP, one I/P encounter near end of year, 2 CAD Dx (1st with onset before first visit, 2nd with onset after last amb. visit but before I/P visit), and 1 mod and 1 severe LVSD Dx with onset during I/P visit at same time"}],"modifierExtension":[{"url":"http://hl7.org/fhir/us/cqfmeasures/StructureDefinition/cqfm-isTestCase","valueBoolean":true}],"status":"complete","type":"individual","measure":"https://madie.cms.gov/Measure/CADBetaBlockerTherapyPriorMIorLVSDFHIR","period":{"start":"2025-01-01","end":"2025-12-31"},"group":[{"population":[{"code":{"coding":[{"system":"http://terminology.hl7.org/CodeSystem/measure-population","code":"initial-population","display":"Initial Population"}]},"count":1},{"code":{"coding":[{"system":"http://terminology.hl7.org/CodeSystem/measure-population","code":"denominator","display":"Denominator"}]},"count":0},{"code":{"coding":[{"system":"http://terminology.hl7.org/CodeSystem/measure-population","code":"numerator","display":"Numerator"}]},"count":0},{"code":{"coding":[{"system":"http://terminology.hl7.org/CodeSystem/measure-population","code":"denominator-exception","display":"Denominator Exception"}]},"count":0}]},{"population":[{"code":{"coding":[{"system":"http://terminology.hl7.org/CodeSystem/measure-population","code":"initial-population","display":"Initial Population"}]},"count":1},{"code":{"coding":[{"system":"http://terminology.hl7.org/CodeSystem/measure-population","code":"denominator","display":"Denominator"}]},"count":0},{"code":{"coding":[{"system":"http://terminology.hl7.org/CodeSystem/measure-population","code":"numerator","display":"Numerator"}]},"count":0},{"code":{"coding":[{"system":"http://terminology.hl7.org/CodeSystem/measure-population","code":"denominator-exception","display":"Denominator Exception"}]},"count":0}]}]},"request":{"method":"PUT","url":"MeasureReport/454c8343-0962-4f6d-bb0e-b157fce44d9e"}}]}