{"resourceType":"Bundle","id":"tests-b472b9b5-419f-4e40-81c7-2086b4b3962d-bundle","type":"transaction","entry":[{"fullUrl":"https://madie.cms.gov/Patient/b472b9b5-419f-4e40-81c7-2086b4b3962d","resource":{"resourceType":"Patient","id":"b472b9b5-419f-4e40-81c7-2086b4b3962d","meta":{"profile":["http://hl7.org/fhir/us/qicore/StructureDefinition/qicore-patient"]},"extension":[{"url":"http://hl7.org/fhir/us/core/StructureDefinition/us-core-race","extension":[{"url":"ombCategory","valueCoding":{"system":"urn:oid:2.16.840.1.113883.6.238","code":"1002-5","display":"American Indian or Alaska Native"}},{"url":"text","valueString":"American Indian or Alaska Native"}]},{"url":"http://hl7.org/fhir/us/core/StructureDefinition/us-core-ethnicity","extension":[{"url":"ombCategory","valueCoding":{"system":"urn:oid:2.16.840.1.113883.6.238","code":"2186-5","display":"Not Hispanic or Latino"}},{"url":"text","valueString":"Not Hispanic or Latino"}]}],"identifier":[{"type":{"coding":[{"system":"http://terminology.hl7.org/CodeSystem/v2-0203","code":"MR"}]},"system":"https://bonnie-fhir.healthit.gov/","value":"62d99a52aa9f5c6ec34ff3c2"}],"active":true,"name":[{"use":"usual","family":"DENEXCEPPop1Fail","given":["AtrioBlockCardiacPacerPx"]}],"gender":"female","birthDate":"1982-06-28"},"request":{"method":"PUT","url":"Patient/b472b9b5-419f-4e40-81c7-2086b4b3962d"}},{"fullUrl":"https://madie.cms.gov/Encounter/5c954d9db848462de0ae6fff","resource":{"resourceType":"Encounter","id":"5c954d9db848462de0ae6fff","meta":{"profile":["http://hl7.org/fhir/us/qicore/StructureDefinition/qicore-encounter"]},"status":"finished","class":{"system":"http://terminology.hl7.org/CodeSystem/v3-ActCode","code":"AMB","display":"ambulatory encounter"},"type":[{"coding":[{"system":"http://www.ama-assn.org/go/cpt","version":"2023","code":"99205"}]}],"subject":{"reference":"Patient/b472b9b5-419f-4e40-81c7-2086b4b3962d"},"period":{"start":"2025-01-23T11:00:00.000+00:00","end":"2025-01-23T11:15:00.000+00:00"}},"request":{"method":"PUT","url":"Encounter/5c954d9db848462de0ae6fff"}},{"fullUrl":"https://madie.cms.gov/Encounter/5c954d9db848462de0ae7000","resource":{"resourceType":"Encounter","id":"5c954d9db848462de0ae7000","meta":{"profile":["http://hl7.org/fhir/us/qicore/StructureDefinition/qicore-encounter"]},"status":"finished","class":{"system":"http://terminology.hl7.org/CodeSystem/v3-ActCode","code":"AMB","display":"ambulatory encounter"},"type":[{"coding":[{"system":"http://snomed.info/sct","version":"http://snomed.info/sct/731000124108/version/20230901","code":"185320006","display":"Encounter by computer link (procedure)"}]}],"subject":{"reference":"Patient/b472b9b5-419f-4e40-81c7-2086b4b3962d"},"period":{"start":"2025-02-25T13:15:00+00:00","end":"2025-02-25T14:15:00+00:00"}},"request":{"method":"PUT","url":"Encounter/5c954d9db848462de0ae7000"}},{"fullUrl":"https://madie.cms.gov/Condition/5c954d9db848462de0ae6ffd","resource":{"resourceType":"Condition","id":"5c954d9db848462de0ae6ffd","meta":{"profile":["http://hl7.org/fhir/us/qicore/StructureDefinition/qicore-condition"]},"clinicalStatus":{"coding":[{"system":"http://terminology.hl7.org/CodeSystem/condition-clinical","code":"active","display":"Active"}]},"verificationStatus":{"coding":[{"system":"http://terminology.hl7.org/CodeSystem/condition-ver-status","code":"confirmed","display":"Confirmed"}]},"category":[{"coding":[{"system":"http://terminology.hl7.org/CodeSystem/condition-category","code":"problem-list-item","display":"Problem List Item"}]}],"code":{"coding":[{"system":"http://hl7.org/fhir/sid/icd-10-cm","version":"2023","code":"I44.1"}]},"subject":{"reference":"Patient/b472b9b5-419f-4e40-81c7-2086b4b3962d"},"onsetPeriod":{"start":"2025-01-23T15:00:00+00:00"}},"request":{"method":"PUT","url":"Condition/5c954d9db848462de0ae6ffd"}},{"fullUrl":"https://madie.cms.gov/Observation/5c954d9db848462de0ae7002","resource":{"resourceType":"Observation","id":"5c954d9db848462de0ae7002","meta":{"profile":["http://hl7.org/fhir/StructureDefinition/heartrate"]},"status":"final","category":[{"coding":[{"system":"http://terminology.hl7.org/CodeSystem/observation-category","code":"vital-signs","display":"Vital Signs"}]}],"code":{"coding":[{"system":"http://loinc.org","version":"2.73","code":"8867-4"}]},"subject":{"reference":"Patient/b472b9b5-419f-4e40-81c7-2086b4b3962d"},"effectiveDateTime":"2025-02-25T13:15:00+00:00","valueQuantity":{"value":25,"unit":"/min","system":"http://unitsofmeasure.org","code":"/min"}},"request":{"method":"PUT","url":"Observation/5c954d9db848462de0ae7002"}},{"fullUrl":"https://madie.cms.gov/Observation/5c954d9db848462de0ae7004","resource":{"resourceType":"Observation","id":"5c954d9db848462de0ae7004","meta":{"profile":["http://hl7.org/fhir/StructureDefinition/heartrate"]},"status":"final","category":[{"coding":[{"system":"http://terminology.hl7.org/CodeSystem/observation-category","code":"vital-signs","display":"Vital Signs"}]}],"code":{"coding":[{"system":"http://loinc.org","version":"2.73","code":"8867-4"}]},"subject":{"reference":"Patient/b472b9b5-419f-4e40-81c7-2086b4b3962d"},"effectiveDateTime":"2025-02-25T18:15:00+00:00","valueQuantity":{"value":20,"unit":"/min","system":"http://unitsofmeasure.org","code":"/min"}},"request":{"method":"PUT","url":"Observation/5c954d9db848462de0ae7004"}},{"fullUrl":"https://madie.cms.gov/Condition/7681316354663468","resource":{"resourceType":"Condition","id":"7681316354663468","meta":{"profile":["http://hl7.org/fhir/us/qicore/StructureDefinition/qicore-condition"]},"clinicalStatus":{"coding":[{"system":"http://terminology.hl7.org/CodeSystem/condition-clinical","code":"active","display":"Active"}]},"verificationStatus":{"coding":[{"system":"http://terminology.hl7.org/CodeSystem/condition-ver-status","code":"confirmed","display":"Confirmed"}]},"category":[{"coding":[{"system":"http://terminology.hl7.org/CodeSystem/condition-category","code":"problem-list-item","display":"Problem List Item"}]}],"code":{"coding":[{"system":"http://snomed.info/sct","version":"http://snomed.info/sct/731000124108/version/202303","code":"981000124106","display":"Moderate left ventricular systolic dysfunction (disorder)"}]},"subject":{"reference":"Patient/b472b9b5-419f-4e40-81c7-2086b4b3962d"},"onsetPeriod":{"start":"2025-01-05T17:00:00.000+00:00","end":"2025-02-02T17:00:00.000+00:00"}},"request":{"method":"PUT","url":"Condition/7681316354663468"}},{"fullUrl":"https://madie.cms.gov/Condition/1687498465165131","resource":{"resourceType":"Condition","id":"1687498465165131","meta":{"profile":["http://hl7.org/fhir/us/qicore/StructureDefinition/qicore-condition"]},"clinicalStatus":{"coding":[{"system":"http://terminology.hl7.org/CodeSystem/condition-clinical","code":"active","display":"Active"}]},"verificationStatus":{"coding":[{"system":"http://terminology.hl7.org/CodeSystem/condition-ver-status","code":"confirmed","display":"Confirmed"}]},"category":[{"coding":[{"system":"http://terminology.hl7.org/CodeSystem/condition-category","code":"problem-list-item","display":"Problem List Item"}]}],"code":{"coding":[{"system":"http://snomed.info/sct","version":"http://snomed.info/sct/731000124108/version/202303","code":"10365005","display":"Right main coronary artery thrombosis (disorder)"}]},"subject":{"reference":"Patient/b472b9b5-419f-4e40-81c7-2086b4b3962d"},"onsetDateTime":"2025-01-23T11:00:00.000+00:00"},"request":{"method":"PUT","url":"Condition/1687498465165131"}},{"fullUrl":"https://madie.cms.gov/Procedure/4684984635165161","resource":{"resourceType":"Procedure","id":"4684984635165161","meta":{"profile":["http://hl7.org/fhir/us/qicore/StructureDefinition/qicore-procedure"]},"extension":[{"url":"http://hl7.org/fhir/us/qicore/StructureDefinition/qicore-recorded","valueDateTime":"2025-01-22T08:00:00.000+00:00"}],"status":"completed","code":{"coding":[{"system":"http://snomed.info/sct","version":"http://snomed.info/sct/731000124108/version/202303","code":"1279006","display":"Repair of cardiac pacemaker pocket in skin AND/OR subcutaneous tissue (procedure)"}]},"subject":{"reference":"Patient/b472b9b5-419f-4e40-81c7-2086b4b3962d"},"performedPeriod":{"start":"2025-01-22T08:00:00.000+00:00","end":"2025-01-22T08:30:00.000+00:00"}},"request":{"method":"PUT","url":"Procedure/4684984635165161"}},{"fullUrl":"https://madie.cms.gov/MeasureReport/660f2909-3ab9-4459-8709-9156526f46a7","resource":{"resourceType":"MeasureReport","id":"660f2909-3ab9-4459-8709-9156526f46a7","meta":{"profile":["http://hl7.org/fhir/us/cqfmeasures/StructureDefinition/test-case-cqfm"]},"contained":[{"resourceType":"Parameters","id":"9cf47904-e5b6-43b4-8343-35f1cf4bc022-parameters","parameter":[{"name":"subject","valueString":"b472b9b5-419f-4e40-81c7-2086b4b3962d"}]}],"extension":[{"url":"http://hl7.org/fhir/us/cqfmeasures/StructureDefinition/cqfm-inputParameters","valueReference":{"reference":"#9cf47904-e5b6-43b4-8343-35f1cf4bc022-parameters"}},{"url":"http://hl7.org/fhir/us/cqfmeasures/StructureDefinition/cqfm-testCaseDescription","valueMarkdown":"Pt > 18, 2 visits in MP, AV block onset after 1st visit b4 2nd visit, pulse of 25 bpm during 2nd visit, a pulse of 20 bpm after 2nd visit, moderate LVSD onset b4 1st visit, CAD Dx onset during 2nd visit, and Cardiac Pacer Px during MP b4 1st visit"}],"modifierExtension":[{"url":"http://hl7.org/fhir/us/cqfmeasures/StructureDefinition/cqfm-isTestCase","valueBoolean":true}],"status":"complete","type":"individual","measure":"https://madie.cms.gov/Measure/CADBetaBlockerTherapyPriorMIorLVSDFHIR","period":{"start":"2025-01-01","end":"2025-12-31"},"group":[{"population":[{"code":{"coding":[{"system":"http://terminology.hl7.org/CodeSystem/measure-population","code":"initial-population","display":"Initial Population"}]},"count":1},{"code":{"coding":[{"system":"http://terminology.hl7.org/CodeSystem/measure-population","code":"denominator","display":"Denominator"}]},"count":1},{"code":{"coding":[{"system":"http://terminology.hl7.org/CodeSystem/measure-population","code":"numerator","display":"Numerator"}]},"count":0},{"code":{"coding":[{"system":"http://terminology.hl7.org/CodeSystem/measure-population","code":"denominator-exception","display":"Denominator Exception"}]},"count":0}]},{"population":[{"code":{"coding":[{"system":"http://terminology.hl7.org/CodeSystem/measure-population","code":"initial-population","display":"Initial Population"}]},"count":1},{"code":{"coding":[{"system":"http://terminology.hl7.org/CodeSystem/measure-population","code":"denominator","display":"Denominator"}]},"count":0},{"code":{"coding":[{"system":"http://terminology.hl7.org/CodeSystem/measure-population","code":"numerator","display":"Numerator"}]},"count":0},{"code":{"coding":[{"system":"http://terminology.hl7.org/CodeSystem/measure-population","code":"denominator-exception","display":"Denominator Exception"}]},"count":0}]}],"evaluatedResource":[{"reference":"Patient/b472b9b5-419f-4e40-81c7-2086b4b3962d"},{"reference":"Encounter/5c954d9db848462de0ae6fff"},{"reference":"Encounter/5c954d9db848462de0ae7000"},{"reference":"Condition/5c954d9db848462de0ae6ffd"},{"reference":"Observation/5c954d9db848462de0ae7002"},{"reference":"Observation/5c954d9db848462de0ae7004"},{"reference":"Condition/7681316354663468"},{"reference":"Condition/1687498465165131"},{"reference":"Procedure/4684984635165161"}]},"request":{"method":"PUT","url":"MeasureReport/660f2909-3ab9-4459-8709-9156526f46a7"}}]}