{"resourceType":"Bundle","id":"tests-68c4dacc-cb3c-423b-9fde-899dfd05b5f6-bundle","type":"transaction","entry":[{"fullUrl":"https://madie.cms.gov/Patient/68c4dacc-cb3c-423b-9fde-899dfd05b5f6","resource":{"resourceType":"Patient","id":"68c4dacc-cb3c-423b-9fde-899dfd05b5f6","meta":{"profile":["http://hl7.org/fhir/us/qicore/StructureDefinition/qicore-patient"]},"extension":[{"url":"http://hl7.org/fhir/us/core/StructureDefinition/us-core-race","extension":[{"url":"ombCategory","valueCoding":{"system":"urn:oid:2.16.840.1.113883.6.238","code":"1002-5","display":"American Indian or Alaska Native"}},{"url":"text","valueString":"American Indian or Alaska Native"}]},{"url":"http://hl7.org/fhir/us/core/StructureDefinition/us-core-ethnicity","extension":[{"url":"ombCategory","valueCoding":{"system":"urn:oid:2.16.840.1.113883.6.238","code":"2186-5","display":"Not Hispanic or Latino"}},{"url":"text","valueString":"Not Hispanic or Latino"}]}],"identifier":[{"type":{"coding":[{"system":"http://terminology.hl7.org/CodeSystem/v2-0203","code":"MR"}]},"system":"https://bonnie-fhir.healthit.gov/","value":"649846516846516316"}],"active":true,"name":[{"use":"usual","family":"DENEXCEPPop2Fail","given":["AtrioBlockWithCardiacPacerSitu"]}],"gender":"female","birthDate":"1922-03-24"},"request":{"method":"PUT","url":"Patient/68c4dacc-cb3c-423b-9fde-899dfd05b5f6"}},{"fullUrl":"https://madie.cms.gov/Encounter/98798165148613131","resource":{"resourceType":"Encounter","id":"98798165148613131","meta":{"profile":["http://hl7.org/fhir/us/qicore/StructureDefinition/qicore-encounter"]},"status":"finished","class":{"system":"http://terminology.hl7.org/CodeSystem/v3-ActCode","code":"AMB","display":"ambulatory encounter"},"type":[{"coding":[{"system":"http://www.ama-assn.org/go/cpt","version":"2023","code":"99205"}]}],"subject":{"reference":"Patient/68c4dacc-cb3c-423b-9fde-899dfd05b5f6"},"period":{"start":"2025-04-05T06:00:00+00:00","end":"2025-04-05T07:00:00+00:00"}},"request":{"method":"PUT","url":"Encounter/98798165148613131"}},{"fullUrl":"https://madie.cms.gov/Encounter/1611684651351313516","resource":{"resourceType":"Encounter","id":"1611684651351313516","meta":{"profile":["http://hl7.org/fhir/us/qicore/StructureDefinition/qicore-encounter"]},"status":"finished","class":{"system":"http://terminology.hl7.org/CodeSystem/v3-ActCode","code":"AMB","display":"ambulatory encounter"},"type":[{"coding":[{"system":"http://snomed.info/sct","version":"http://snomed.info/sct/731000124108/version/20230901","code":"77406008","display":"Confirmatory medical consultation (procedure)"}]}],"subject":{"reference":"Patient/68c4dacc-cb3c-423b-9fde-899dfd05b5f6"},"period":{"start":"2025-07-08T08:45:00+00:00","end":"2025-07-08T09:00:00+00:00"}},"request":{"method":"PUT","url":"Encounter/1611684651351313516"}},{"fullUrl":"https://madie.cms.gov/Condition/4651651351313513135","resource":{"resourceType":"Condition","id":"4651651351313513135","meta":{"profile":["http://hl7.org/fhir/us/qicore/StructureDefinition/qicore-condition"]},"clinicalStatus":{"coding":[{"system":"http://terminology.hl7.org/CodeSystem/condition-clinical","code":"active","display":"Active"}]},"verificationStatus":{"coding":[{"system":"http://terminology.hl7.org/CodeSystem/condition-ver-status","code":"confirmed","display":"Confirmed"}]},"category":[{"coding":[{"system":"http://terminology.hl7.org/CodeSystem/condition-category","code":"problem-list-item","display":"Problem List Item"}]}],"code":{"coding":[{"system":"http://hl7.org/fhir/sid/icd-10-cm","version":"2023","code":"I21.09"}]},"subject":{"reference":"Patient/68c4dacc-cb3c-423b-9fde-899dfd05b5f6"},"onsetPeriod":{"start":"2025-04-05T06:00:00.000+00:00"}},"request":{"method":"PUT","url":"Condition/4651651351313513135"}},{"fullUrl":"https://madie.cms.gov/Condition/46513516513513513","resource":{"resourceType":"Condition","id":"46513516513513513","meta":{"profile":["http://hl7.org/fhir/us/qicore/StructureDefinition/qicore-condition"]},"clinicalStatus":{"coding":[{"system":"http://terminology.hl7.org/CodeSystem/condition-clinical","code":"active","display":"Active"}]},"verificationStatus":{"coding":[{"system":"http://terminology.hl7.org/CodeSystem/condition-ver-status","code":"confirmed","display":"Confirmed"}]},"category":[{"coding":[{"system":"http://terminology.hl7.org/CodeSystem/condition-category","code":"problem-list-item","display":"Problem List Item"}]}],"code":{"coding":[{"system":"http://snomed.info/sct","version":"http://snomed.info/sct/731000124108/version/20230901","code":"10365005","display":"Right main coronary artery thrombosis (disorder)"}]},"subject":{"reference":"Patient/68c4dacc-cb3c-423b-9fde-899dfd05b5f6"},"onsetPeriod":{"start":"2025-04-05T06:00:00.000+00:00"}},"request":{"method":"PUT","url":"Condition/46513516513513513"}},{"fullUrl":"https://madie.cms.gov/Condition/49819849465161313","resource":{"resourceType":"Condition","id":"49819849465161313","meta":{"profile":["http://hl7.org/fhir/us/qicore/StructureDefinition/qicore-condition"]},"clinicalStatus":{"coding":[{"system":"http://terminology.hl7.org/CodeSystem/condition-clinical","code":"active","display":"Active"}]},"verificationStatus":{"coding":[{"system":"http://terminology.hl7.org/CodeSystem/condition-ver-status","code":"confirmed","display":"Confirmed"}]},"category":[{"coding":[{"system":"http://terminology.hl7.org/CodeSystem/condition-category","code":"problem-list-item","display":"Problem List Item"}]}],"code":{"coding":[{"system":"http://snomed.info/sct","version":"http://snomed.info/sct/731000124108/version/20230901","code":"102451000119107","display":"Complete atrioventricular block as complication of atrioventricular nodal ablation (disorder)"}]},"subject":{"reference":"Patient/68c4dacc-cb3c-423b-9fde-899dfd05b5f6"},"onsetDateTime":"2025-07-07T10:00:00+00:00"},"request":{"method":"PUT","url":"Condition/49819849465161313"}},{"fullUrl":"https://madie.cms.gov/Condition/1341615103513131","resource":{"resourceType":"Condition","id":"1341615103513131","meta":{"profile":["http://hl7.org/fhir/us/qicore/StructureDefinition/qicore-condition"]},"clinicalStatus":{"coding":[{"system":"http://terminology.hl7.org/CodeSystem/condition-clinical","code":"active","display":"Active"}]},"verificationStatus":{"coding":[{"system":"http://terminology.hl7.org/CodeSystem/condition-ver-status","code":"confirmed","display":"Confirmed"}]},"category":[{"coding":[{"system":"http://terminology.hl7.org/CodeSystem/condition-category","code":"problem-list-item","display":"Problem List Item"}]}],"code":{"coding":[{"system":"http://snomed.info/sct","version":"http://snomed.info/sct/731000124108/version/20230901","code":"441509002","display":"Cardiac pacemaker in situ (finding)"}]},"subject":{"reference":"Patient/68c4dacc-cb3c-423b-9fde-899dfd05b5f6"},"onsetDateTime":"2025-03-07T10:00:00+00:00"},"request":{"method":"PUT","url":"Condition/1341615103513131"}},{"fullUrl":"https://madie.cms.gov/MeasureReport/096d1999-2a52-4119-ac4b-39a7c9294138","resource":{"resourceType":"MeasureReport","id":"096d1999-2a52-4119-ac4b-39a7c9294138","meta":{"profile":["http://hl7.org/fhir/us/cqfmeasures/StructureDefinition/test-case-cqfm"]},"contained":[{"resourceType":"Parameters","id":"e642f4ad-d1b7-4501-97b1-7184b80c05f2-parameters","parameter":[{"name":"subject","valueString":"68c4dacc-cb3c-423b-9fde-899dfd05b5f6"}]}],"extension":[{"url":"http://hl7.org/fhir/us/cqfmeasures/StructureDefinition/cqfm-inputParameters","valueReference":{"reference":"#e642f4ad-d1b7-4501-97b1-7184b80c05f2-parameters"}},{"url":"http://hl7.org/fhir/us/cqfmeasures/StructureDefinition/cqfm-testCaseDescription","valueMarkdown":"Pt > 18, 2 visits in MP, MI and CAD (both with onset during 1st visit), AV Block b4 2nd visit, and has Cardiac Pacer in Situ Dx during MP b4 1st visit"}],"modifierExtension":[{"url":"http://hl7.org/fhir/us/cqfmeasures/StructureDefinition/cqfm-isTestCase","valueBoolean":true}],"status":"complete","type":"individual","measure":"https://madie.cms.gov/Measure/CADBetaBlockerTherapyPriorMIorLVSDFHIR","period":{"start":"2025-01-01","end":"2025-12-31"},"group":[{"population":[{"code":{"coding":[{"system":"http://terminology.hl7.org/CodeSystem/measure-population","code":"initial-population","display":"Initial Population"}]},"count":1},{"code":{"coding":[{"system":"http://terminology.hl7.org/CodeSystem/measure-population","code":"denominator","display":"Denominator"}]},"count":0},{"code":{"coding":[{"system":"http://terminology.hl7.org/CodeSystem/measure-population","code":"numerator","display":"Numerator"}]},"count":0},{"code":{"coding":[{"system":"http://terminology.hl7.org/CodeSystem/measure-population","code":"denominator-exception","display":"Denominator Exception"}]},"count":0}]},{"population":[{"code":{"coding":[{"system":"http://terminology.hl7.org/CodeSystem/measure-population","code":"initial-population","display":"Initial Population"}]},"count":1},{"code":{"coding":[{"system":"http://terminology.hl7.org/CodeSystem/measure-population","code":"denominator","display":"Denominator"}]},"count":1},{"code":{"coding":[{"system":"http://terminology.hl7.org/CodeSystem/measure-population","code":"numerator","display":"Numerator"}]},"count":0},{"code":{"coding":[{"system":"http://terminology.hl7.org/CodeSystem/measure-population","code":"denominator-exception","display":"Denominator Exception"}]},"count":0}]}],"evaluatedResource":[{"reference":"Patient/68c4dacc-cb3c-423b-9fde-899dfd05b5f6"},{"reference":"Encounter/98798165148613131"},{"reference":"Encounter/1611684651351313516"},{"reference":"Condition/4651651351313513135"},{"reference":"Condition/46513516513513513"},{"reference":"Condition/49819849465161313"},{"reference":"Condition/1341615103513131"}]},"request":{"method":"PUT","url":"MeasureReport/096d1999-2a52-4119-ac4b-39a7c9294138"}}]}