{"resourceType":"Bundle","id":"tests-2dbbdad5-c2dd-42a4-9f6d-f8815bc89a0a-bundle","type":"transaction","entry":[{"fullUrl":"https://madie.cms.gov/Patient/2dbbdad5-c2dd-42a4-9f6d-f8815bc89a0a","resource":{"resourceType":"Patient","id":"2dbbdad5-c2dd-42a4-9f6d-f8815bc89a0a","meta":{"profile":["http://hl7.org/fhir/us/qicore/StructureDefinition/qicore-patient"]},"extension":[{"url":"http://hl7.org/fhir/us/core/StructureDefinition/us-core-race","extension":[{"url":"ombCategory","valueCoding":{"system":"urn:oid:2.16.840.1.113883.6.238","code":"1002-5","display":"American Indian or Alaska Native"}},{"url":"text","valueString":"American Indian or Alaska Native"}]},{"url":"http://hl7.org/fhir/us/core/StructureDefinition/us-core-ethnicity","extension":[{"url":"ombCategory","valueCoding":{"system":"urn:oid:2.16.840.1.113883.6.238","code":"2186-5","display":"Not Hispanic or Latino"}},{"url":"text","valueString":"Not Hispanic or Latino"}]}],"identifier":[{"type":{"coding":[{"system":"http://terminology.hl7.org/CodeSystem/v2-0203","code":"MR"}]},"system":"https://bonnie-fhir.healthit.gov/","value":"16516874684351341"}],"active":true,"name":[{"use":"usual","family":"DENEXCEPPop2Pass","given":["Hypotension"]}],"gender":"female","birthDate":"1934-03-24"},"request":{"method":"PUT","url":"Patient/2dbbdad5-c2dd-42a4-9f6d-f8815bc89a0a"}},{"fullUrl":"https://madie.cms.gov/Encounter/Encounter-Encounter-215265538534635856","resource":{"resourceType":"Encounter","id":"Encounter-215265538534635856","meta":{"profile":["http://hl7.org/fhir/us/qicore/StructureDefinition/qicore-encounter"]},"status":"finished","class":{"system":"http://terminology.hl7.org/CodeSystem/v3-ActCode","code":"AMB","display":"ambulatory encounter"},"type":[{"coding":[{"system":"http://www.ama-assn.org/go/cpt","version":"2023","code":"99205"}]}],"subject":{"reference":"Patient/2dbbdad5-c2dd-42a4-9f6d-f8815bc89a0a"},"period":{"start":"2025-04-05T06:00:00+00:00","end":"2025-04-05T07:00:00+00:00"}},"request":{"method":"PUT","url":"Encounter/Encounter-215265538534635856"}},{"fullUrl":"https://madie.cms.gov/Encounter/Encounter-Encounter-51245324596978678","resource":{"resourceType":"Encounter","id":"Encounter-51245324596978678","meta":{"profile":["http://hl7.org/fhir/us/qicore/StructureDefinition/qicore-encounter"]},"status":"finished","class":{"system":"http://terminology.hl7.org/CodeSystem/v3-ActCode","code":"AMB","display":"ambulatory encounter"},"type":[{"coding":[{"system":"http://www.ama-assn.org/go/cpt","version":"2023","code":"99205"}]}],"subject":{"reference":"Patient/2dbbdad5-c2dd-42a4-9f6d-f8815bc89a0a"},"period":{"start":"2025-07-08T09:00:00+00:00","end":"2025-07-08T09:00:00+00:00"}},"request":{"method":"PUT","url":"Encounter/Encounter-51245324596978678"}},{"fullUrl":"https://madie.cms.gov/Condition/Condition-5246574679563123","resource":{"resourceType":"Condition","id":"Condition-5246574679563123","meta":{"profile":["http://hl7.org/fhir/us/qicore/StructureDefinition/qicore-condition"]},"clinicalStatus":{"coding":[{"system":"http://terminology.hl7.org/CodeSystem/condition-clinical","code":"active","display":"Active"}]},"verificationStatus":{"coding":[{"system":"http://terminology.hl7.org/CodeSystem/condition-ver-status","code":"confirmed","display":"Confirmed"}]},"category":[{"coding":[{"system":"http://terminology.hl7.org/CodeSystem/condition-category","code":"problem-list-item","display":"Problem List Item"}]}],"code":{"coding":[{"system":"http://hl7.org/fhir/sid/icd-10-cm","version":"2023","code":"I21.01"}]},"subject":{"reference":"Patient/2dbbdad5-c2dd-42a4-9f6d-f8815bc89a0a"},"onsetPeriod":{"start":"2022-11-22T07:30:00+00:00","end":"2022-11-22T08:30:00+00:00"}},"request":{"method":"PUT","url":"Condition/Condition-5246574679563123"}},{"fullUrl":"https://madie.cms.gov/Condition/Condition-24645968563413468","resource":{"resourceType":"Condition","id":"Condition-24645968563413468","meta":{"profile":["http://hl7.org/fhir/us/qicore/StructureDefinition/qicore-condition"]},"clinicalStatus":{"coding":[{"system":"http://terminology.hl7.org/CodeSystem/condition-clinical","code":"active","display":"Active"}]},"category":[{"coding":[{"system":"http://terminology.hl7.org/CodeSystem/condition-category","code":"problem-list-item","display":"Problem List Item"}]}],"code":{"coding":[{"system":"http://snomed.info/sct","version":"http://snomed.info/sct/731000124108/version/202303","code":"10365005","display":"Right main coronary artery thrombosis (disorder)"}]},"subject":{"reference":"Patient/2dbbdad5-c2dd-42a4-9f6d-f8815bc89a0a"},"onsetPeriod":{"start":"2025-01-21T07:00:00.000+00:00"}},"request":{"method":"PUT","url":"Condition/Condition-24645968563413468"}},{"fullUrl":"https://madie.cms.gov/Condition/Condition-161515452465465432","resource":{"resourceType":"Condition","id":"Condition-161515452465465432","meta":{"profile":["http://hl7.org/fhir/us/qicore/StructureDefinition/qicore-condition"]},"clinicalStatus":{"coding":[{"system":"http://terminology.hl7.org/CodeSystem/condition-clinical","code":"active","display":"Active"}]},"verificationStatus":{"coding":[{"system":"http://terminology.hl7.org/CodeSystem/condition-ver-status","code":"confirmed","display":"Confirmed"}]},"category":[{"coding":[{"system":"http://terminology.hl7.org/CodeSystem/condition-category","code":"problem-list-item","display":"Problem List Item"}]}],"code":{"coding":[{"system":"http://snomed.info/sct","version":"http://snomed.info/sct/731000124108/version/202303","code":"195506001","display":"Idiopathic hypotension (disorder)"}]},"subject":{"reference":"Patient/2dbbdad5-c2dd-42a4-9f6d-f8815bc89a0a"},"onsetPeriod":{"start":"2025-04-05T06:00:00.000+00:00"}},"request":{"method":"PUT","url":"Condition/Condition-161515452465465432"}},{"fullUrl":"https://madie.cms.gov/MeasureReport/cedcd6ab-3ce8-4ff5-8736-6fdec42d63f9","resource":{"resourceType":"MeasureReport","id":"cedcd6ab-3ce8-4ff5-8736-6fdec42d63f9","meta":{"profile":["http://hl7.org/fhir/us/cqfmeasures/StructureDefinition/test-case-cqfm"]},"contained":[{"resourceType":"Parameters","id":"492fc9ba-cf29-4b5d-b023-cf38f0bc7de7-parameters","parameter":[{"name":"subject","valueString":"2dbbdad5-c2dd-42a4-9f6d-f8815bc89a0a"}]}],"extension":[{"url":"http://hl7.org/fhir/us/cqfmeasures/StructureDefinition/cqfm-inputParameters","valueReference":{"reference":"#492fc9ba-cf29-4b5d-b023-cf38f0bc7de7-parameters"}},{"url":"http://hl7.org/fhir/us/cqfmeasures/StructureDefinition/cqfm-testCaseDescription","valueMarkdown":"Pt > 18, 2 visits in MP, MI onset > 2 years b4 MP, CAD onset during MP b4 1st visit, Hypotension onset during 1st visit"}],"modifierExtension":[{"url":"http://hl7.org/fhir/us/cqfmeasures/StructureDefinition/cqfm-isTestCase","valueBoolean":true}],"status":"complete","type":"individual","measure":"https://madie.cms.gov/Measure/CADBetaBlockerTherapyPriorMIorLVSDFHIR","period":{"start":"2025-01-01","end":"2025-12-31"},"group":[{"population":[{"code":{"coding":[{"system":"http://terminology.hl7.org/CodeSystem/measure-population","code":"initial-population","display":"Initial Population"}]},"count":1},{"code":{"coding":[{"system":"http://terminology.hl7.org/CodeSystem/measure-population","code":"denominator","display":"Denominator"}]},"count":0},{"code":{"coding":[{"system":"http://terminology.hl7.org/CodeSystem/measure-population","code":"numerator","display":"Numerator"}]},"count":0},{"code":{"coding":[{"system":"http://terminology.hl7.org/CodeSystem/measure-population","code":"denominator-exception","display":"Denominator Exception"}]},"count":0}]},{"population":[{"code":{"coding":[{"system":"http://terminology.hl7.org/CodeSystem/measure-population","code":"initial-population","display":"Initial Population"}]},"count":1},{"code":{"coding":[{"system":"http://terminology.hl7.org/CodeSystem/measure-population","code":"denominator","display":"Denominator"}]},"count":1},{"code":{"coding":[{"system":"http://terminology.hl7.org/CodeSystem/measure-population","code":"numerator","display":"Numerator"}]},"count":0},{"code":{"coding":[{"system":"http://terminology.hl7.org/CodeSystem/measure-population","code":"denominator-exception","display":"Denominator Exception"}]},"count":1}]}],"evaluatedResource":[{"reference":"Patient/2dbbdad5-c2dd-42a4-9f6d-f8815bc89a0a"},{"reference":"Encounter/Encounter-215265538534635856"},{"reference":"Encounter/Encounter-51245324596978678"},{"reference":"Condition/Condition-5246574679563123"},{"reference":"Condition/Condition-24645968563413468"},{"reference":"Condition/Condition-161515452465465432"}]},"request":{"method":"PUT","url":"MeasureReport/cedcd6ab-3ce8-4ff5-8736-6fdec42d63f9"}}]}