{"resourceType":"Bundle","id":"tests-3a8ee66b-5016-4a12-8f1c-df6201cbd6e3-bundle","type":"transaction","entry":[{"fullUrl":"https://madie.cms.gov/Patient/3a8ee66b-5016-4a12-8f1c-df6201cbd6e3","resource":{"resourceType":"Patient","id":"3a8ee66b-5016-4a12-8f1c-df6201cbd6e3","meta":{"profile":["http://hl7.org/fhir/us/qicore/StructureDefinition/qicore-patient"]},"extension":[{"url":"http://hl7.org/fhir/us/core/StructureDefinition/us-core-race","extension":[{"url":"ombCategory","valueCoding":{"system":"urn:oid:2.16.840.1.113883.6.238","code":"1002-5","display":"American Indian or Alaska Native"}},{"url":"text","valueString":"American Indian or Alaska Native"}]},{"url":"http://hl7.org/fhir/us/core/StructureDefinition/us-core-ethnicity","extension":[{"url":"ombCategory","valueCoding":{"system":"urn:oid:2.16.840.1.113883.6.238","code":"2186-5","display":"Not Hispanic or Latino"}},{"url":"text","valueString":"Not Hispanic or Latino"}]}],"identifier":[{"type":{"coding":[{"system":"http://terminology.hl7.org/CodeSystem/v2-0203","code":"MR"}]},"system":"https://bonnie-fhir.healthit.gov/","value":"46843516351.21313"}],"active":true,"name":[{"use":"usual","family":"IPFail","given":["EncounterBeforeMP"]}],"gender":"female","birthDate":"1957-11-01"},"request":{"method":"PUT","url":"Patient/3a8ee66b-5016-4a12-8f1c-df6201cbd6e3"}},{"fullUrl":"https://madie.cms.gov/Encounter/798451641313153513","resource":{"resourceType":"Encounter","id":"798451641313153513","meta":{"profile":["http://hl7.org/fhir/us/qicore/StructureDefinition/qicore-encounter"]},"status":"finished","class":{"system":"http://terminology.hl7.org/CodeSystem/v3-ActCode","code":"AMB","display":"ambulatory"},"type":[{"coding":[{"system":"http://www.ama-assn.org/go/cpt","version":"2023","code":"99205"}]}],"subject":{"reference":"Patient/3a8ee66b-5016-4a12-8f1c-df6201cbd6e3"},"period":{"start":"2024-12-22T11:30:00+00:00","end":"2024-12-22T12:30:00+00:00"},"length":{"value":0,"unit":"days"}},"request":{"method":"PUT","url":"Encounter/798451641313153513"}},{"fullUrl":"https://madie.cms.gov/Encounter/6546453135131313213","resource":{"resourceType":"Encounter","id":"6546453135131313213","meta":{"profile":["http://hl7.org/fhir/us/qicore/StructureDefinition/qicore-encounter"]},"status":"finished","class":{"system":"http://terminology.hl7.org/CodeSystem/v3-ActCode","code":"AMB","display":"ambulatory"},"type":[{"coding":[{"system":"http://www.ama-assn.org/go/cpt","version":"2023","code":"99205"}]}],"subject":{"reference":"Patient/3a8ee66b-5016-4a12-8f1c-df6201cbd6e3"},"period":{"start":"2025-11-22T07:30:00+00:00","end":"2025-11-22T08:30:00+00:00"},"length":{"value":0,"unit":"days"}},"request":{"method":"PUT","url":"Encounter/6546453135131313213"}},{"fullUrl":"https://madie.cms.gov/Condition/4864685164613515121","resource":{"resourceType":"Condition","id":"4864685164613515121","meta":{"profile":["http://hl7.org/fhir/us/qicore/StructureDefinition/qicore-condition"]},"clinicalStatus":{"coding":[{"system":"http://terminology.hl7.org/CodeSystem/condition-clinical","code":"active","display":"Active"}]},"verificationStatus":{"coding":[{"system":"http://terminology.hl7.org/CodeSystem/condition-ver-status","code":"confirmed","display":"Confirmed"}]},"category":[{"coding":[{"system":"http://terminology.hl7.org/CodeSystem/condition-category","code":"problem-list-item","display":"Problem List Item"}]}],"code":{"coding":[{"system":"http://snomed.info/sct","version":"http://snomed.info/sct/731000124108/version/202303","code":"10365005","display":"Right main coronary artery thrombosis (disorder)"}]},"subject":{"reference":"Patient/3a8ee66b-5016-4a12-8f1c-df6201cbd6e3"},"onsetPeriod":{"start":"2025-01-21T07:00:00.000+00:00"}},"request":{"method":"PUT","url":"Condition/4864685164613515121"}},{"fullUrl":"https://madie.cms.gov/MeasureReport/be7535cc-61cd-4650-8e09-1df5d0bf751d","resource":{"resourceType":"MeasureReport","id":"be7535cc-61cd-4650-8e09-1df5d0bf751d","meta":{"profile":["http://hl7.org/fhir/us/cqfmeasures/StructureDefinition/test-case-cqfm"]},"contained":[{"resourceType":"Parameters","id":"41941efa-3049-4c2d-a7b3-b63f4a1db87b-parameters","parameter":[{"name":"subject","valueString":"3a8ee66b-5016-4a12-8f1c-df6201cbd6e3"}]}],"extension":[{"url":"http://hl7.org/fhir/us/cqfmeasures/StructureDefinition/cqfm-inputParameters","valueReference":{"reference":"#41941efa-3049-4c2d-a7b3-b63f4a1db87b-parameters"}},{"url":"http://hl7.org/fhir/us/cqfmeasures/StructureDefinition/cqfm-testCaseDescription","valueMarkdown":"Pt > 18, 2 visits (1st b4 MP, 2nd in MP), and CAD onset during MP b4 2nd visit"}],"modifierExtension":[{"url":"http://hl7.org/fhir/us/cqfmeasures/StructureDefinition/cqfm-isTestCase","valueBoolean":true}],"status":"complete","type":"individual","measure":"https://madie.cms.gov/Measure/CADBetaBlockerTherapyPriorMIorLVSDFHIR","period":{"start":"2025-01-01","end":"2025-12-31"},"group":[{"population":[{"code":{"coding":[{"system":"http://terminology.hl7.org/CodeSystem/measure-population","code":"initial-population","display":"Initial Population"}]},"count":0},{"code":{"coding":[{"system":"http://terminology.hl7.org/CodeSystem/measure-population","code":"denominator","display":"Denominator"}]},"count":0},{"code":{"coding":[{"system":"http://terminology.hl7.org/CodeSystem/measure-population","code":"numerator","display":"Numerator"}]},"count":0},{"code":{"coding":[{"system":"http://terminology.hl7.org/CodeSystem/measure-population","code":"denominator-exception","display":"Denominator Exception"}]},"count":0}]},{"population":[{"code":{"coding":[{"system":"http://terminology.hl7.org/CodeSystem/measure-population","code":"initial-population","display":"Initial Population"}]},"count":0},{"code":{"coding":[{"system":"http://terminology.hl7.org/CodeSystem/measure-population","code":"denominator","display":"Denominator"}]},"count":0},{"code":{"coding":[{"system":"http://terminology.hl7.org/CodeSystem/measure-population","code":"numerator","display":"Numerator"}]},"count":0},{"code":{"coding":[{"system":"http://terminology.hl7.org/CodeSystem/measure-population","code":"denominator-exception","display":"Denominator Exception"}]},"count":0}]}],"evaluatedResource":[{"reference":"Patient/3a8ee66b-5016-4a12-8f1c-df6201cbd6e3"},{"reference":"Encounter/798451641313153513"},{"reference":"Encounter/6546453135131313213"},{"reference":"Condition/4864685164613515121"}]},"request":{"method":"PUT","url":"MeasureReport/be7535cc-61cd-4650-8e09-1df5d0bf751d"}}]}