{"resourceType":"Bundle","id":"tests-1d5593d0-f513-46f6-8c2d-538685a61185-bundle","type":"transaction","entry":[{"fullUrl":"https://madie.cms.gov/Patient/1d5593d0-f513-46f6-8c2d-538685a61185","resource":{"resourceType":"Patient","id":"1d5593d0-f513-46f6-8c2d-538685a61185","meta":{"profile":["http://hl7.org/fhir/us/core/StructureDefinition/us-core-patient","http://hl7.org/fhir/us/qicore/StructureDefinition/qicore-patient"]},"extension":[{"url":"http://hl7.org/fhir/us/core/StructureDefinition/us-core-race","extension":[{"url":"ombCategory","valueCoding":{"system":"urn:oid:2.16.840.1.113883.6.238","code":"2028-9","display":"Asian"}},{"url":"text","valueString":"Asian"}]},{"url":"http://hl7.org/fhir/us/core/StructureDefinition/us-core-ethnicity","extension":[{"url":"ombCategory","valueCoding":{"system":"urn:oid:2.16.840.1.113883.6.238","code":"2135-2","display":"Hispanic or Latino"}},{"url":"text","valueString":"Hispanic or Latino"}]}],"identifier":[{"system":"http://hospital.smarthealthit.org","value":"999999995"}],"name":[{"family":"ScanOutsideMP","given":["IPPFail"]}],"gender":"male","birthDate":"1978-06-12"},"request":{"method":"PUT","url":"Patient/1d5593d0-f513-46f6-8c2d-538685a61185"}},{"fullUrl":"https://madie.cms.gov/Observation/ippfail-scanoutsidemp-2","resource":{"resourceType":"Observation","id":"ippfail-scanoutsidemp-2","meta":{"profile":["http://hl7.org/fhir/us/qicore/StructureDefinition/qicore-observation"]},"status":"final","category":[{"coding":[{"system":"http://terminology.hl7.org/CodeSystem/observation-category","code":"imaging","display":"Imaging"}]}],"code":{"coding":[{"system":"http://loinc.org","code":"96914-7","display":"CT dose and image quality category"}],"text":"CT dose and image quality category"},"subject":{"reference":"Patient/1d5593d0-f513-46f6-8c2d-538685a61185"},"effectiveDateTime":"2026-01-02T00:00:00.000Z","valueCodeableConcept":{"coding":[{"system":"http://alaracare.com","code":"ABDOPEL RT","display":"Abdomen or Pelvis Routine Dose"}]},"component":[{"code":{"coding":[{"system":"http://loinc.org","code":"96912-1","display":"Calculated CT global noise"}]},"valueQuantity":{"value":63,"unit":"[hnsf'U]","system":"http://unitsofmeasure.org","code":"[hnsf'U]"}},{"code":{"coding":[{"system":"http://loinc.org","code":"96913-9","display":"Calculated CT size-adjusted dose"}]},"valueQuantity":{"value":597,"unit":"mGy.cm","system":"http://unitsofmeasure.org","code":"mGy.cm"}}]},"request":{"method":"PUT","url":"Observation/ippfail-scanoutsidemp-2"}},{"fullUrl":"https://madie.cms.gov/MeasureReport/cec7d254-08b0-438e-b697-3ca2ad3b2d27","resource":{"resourceType":"MeasureReport","id":"cec7d254-08b0-438e-b697-3ca2ad3b2d27","meta":{"profile":["http://hl7.org/fhir/us/cqfmeasures/StructureDefinition/test-case-cqfm"]},"contained":[{"resourceType":"Parameters","id":"2d3f64bf-fc63-475c-856b-f2895bbabf5b-parameters","parameter":[{"name":"subject","valueString":"1d5593d0-f513-46f6-8c2d-538685a61185"}]}],"extension":[{"url":"http://hl7.org/fhir/us/cqfmeasures/StructureDefinition/cqfm-inputParameters","valueReference":{"reference":"#2d3f64bf-fc63-475c-856b-f2895bbabf5b-parameters"}},{"url":"http://hl7.org/fhir/us/cqfmeasures/StructureDefinition/cqfm-testCaseDescription","valueMarkdown":"Patient has a valid CT Scan but it is conducted outside the Measurement Period"}],"modifierExtension":[{"url":"http://hl7.org/fhir/us/cqfmeasures/StructureDefinition/cqfm-isTestCase","valueBoolean":true}],"status":"complete","type":"individual","measure":"https://madie.cms.gov/Measure/AlaraCTFHIR","period":{"start":"2025-01-01","end":"2025-12-31"},"group":[{"population":[{"code":{"coding":[{"system":"http://terminology.hl7.org/CodeSystem/measure-population","code":"initial-population","display":"Initial Population"}]},"count":0},{"code":{"coding":[{"system":"http://terminology.hl7.org/CodeSystem/measure-population","code":"denominator","display":"Denominator"}]},"count":0},{"code":{"coding":[{"system":"http://terminology.hl7.org/CodeSystem/measure-population","code":"denominator-exclusion","display":"Denominator Exclusion"}]},"count":0},{"code":{"coding":[{"system":"http://terminology.hl7.org/CodeSystem/measure-population","code":"numerator","display":"Numerator"}]},"count":0}]}],"evaluatedResource":[{"reference":"Patient/1d5593d0-f513-46f6-8c2d-538685a61185"},{"reference":"Observation/ippfail-scanoutsidemp-2"}]},"request":{"method":"PUT","url":"MeasureReport/cec7d254-08b0-438e-b697-3ca2ad3b2d27"}}]}