{"resourceType":"Bundle","id":"tests-405bb76e-a162-49ad-8b52-9f6f745efb64-bundle","type":"transaction","entry":[{"fullUrl":"https://madie.cms.gov/Patient/405bb76e-a162-49ad-8b52-9f6f745efb64","resource":{"resourceType":"Patient","id":"405bb76e-a162-49ad-8b52-9f6f745efb64","meta":{"profile":["http://hl7.org/fhir/us/core/StructureDefinition/us-core-patient","http://hl7.org/fhir/us/qicore/StructureDefinition/qicore-patient"]},"extension":[{"url":"http://hl7.org/fhir/us/core/StructureDefinition/us-core-race","extension":[{"url":"ombCategory","valueCoding":{"system":"urn:oid:2.16.840.1.113883.6.238","code":"2028-9","display":"Asian"}},{"url":"text","valueString":"Asian"}]},{"url":"http://hl7.org/fhir/us/core/StructureDefinition/us-core-ethnicity","extension":[{"url":"ombCategory","valueCoding":{"system":"urn:oid:2.16.840.1.113883.6.238","code":"2135-2","display":"Hispanic or Latino"}},{"url":"text","valueString":"Hispanic or Latino"}]}],"identifier":[{"system":"http://hospital.smarthealthit.org","value":"999999995"}],"name":[{"family":"Under18","given":["IPPFail"]}],"gender":"female","birthDate":"2007-01-02"},"request":{"method":"PUT","url":"Patient/405bb76e-a162-49ad-8b52-9f6f745efb64"}},{"fullUrl":"https://madie.cms.gov/Observation/ippfail-under18-2","resource":{"resourceType":"Observation","id":"ippfail-under18-2","meta":{"profile":["http://hl7.org/fhir/us/qicore/StructureDefinition/qicore-observation"]},"status":"final","category":[{"coding":[{"system":"http://terminology.hl7.org/CodeSystem/observation-category","code":"imaging","display":"Imaging"}]}],"code":{"coding":[{"system":"http://loinc.org","code":"96914-7","display":"CT dose and image quality category"}],"text":"CT dose and image quality category"},"subject":{"reference":"Patient/405bb76e-a162-49ad-8b52-9f6f745efb64"},"encounter":{"reference":"Encounter/ippfail-under18-1"},"effectiveDateTime":"2024-01-02T00:00:00.000Z","valueCodeableConcept":{"coding":[{"system":"http://alaracare.com","code":"ABDOPEL LD","display":"Abdomen or Pelvis Low Dose"}]},"component":[{"code":{"coding":[{"system":"http://loinc.org","code":"96912-1","display":"Calculated CT global noise"}]},"valueQuantity":{"value":63,"unit":"[hnsf'U]","system":"http://unitsofmeasure.org","code":"[hnsf'U]"}},{"code":{"coding":[{"system":"http://loinc.org","code":"96913-9","display":"Calculated CT size-adjusted dose"}]},"valueQuantity":{"value":597,"unit":"mGy.cm","system":"http://unitsofmeasure.org","code":"mGy.cm"}}]},"request":{"method":"PUT","url":"Observation/ippfail-under18-2"}},{"fullUrl":"https://madie.cms.gov/MeasureReport/6497dd20-af67-479a-8fc3-bdae2f5ee1cf","resource":{"resourceType":"MeasureReport","id":"6497dd20-af67-479a-8fc3-bdae2f5ee1cf","meta":{"profile":["http://hl7.org/fhir/us/cqfmeasures/StructureDefinition/test-case-cqfm"]},"contained":[{"resourceType":"Parameters","id":"afd92320-e2e0-419e-be91-a051f0b86770-parameters","parameter":[{"name":"subject","valueString":"405bb76e-a162-49ad-8b52-9f6f745efb64"}]}],"extension":[{"url":"http://hl7.org/fhir/us/cqfmeasures/StructureDefinition/cqfm-inputParameters","valueReference":{"reference":"#afd92320-e2e0-419e-be91-a051f0b86770-parameters"}},{"url":"http://hl7.org/fhir/us/cqfmeasures/StructureDefinition/cqfm-testCaseDescription","valueMarkdown":"Patient has a valid CT Scan but is 1 day under 18 at the start of the Measurement Period"}],"modifierExtension":[{"url":"http://hl7.org/fhir/us/cqfmeasures/StructureDefinition/cqfm-isTestCase","valueBoolean":true}],"status":"complete","type":"individual","measure":"https://madie.cms.gov/Measure/AlaraCTFHIR","period":{"start":"2025-01-01","end":"2025-12-31"},"group":[{"population":[{"code":{"coding":[{"system":"http://terminology.hl7.org/CodeSystem/measure-population","code":"initial-population","display":"Initial Population"}]},"count":0},{"code":{"coding":[{"system":"http://terminology.hl7.org/CodeSystem/measure-population","code":"denominator","display":"Denominator"}]},"count":0},{"code":{"coding":[{"system":"http://terminology.hl7.org/CodeSystem/measure-population","code":"denominator-exclusion","display":"Denominator Exclusion"}]},"count":0},{"code":{"coding":[{"system":"http://terminology.hl7.org/CodeSystem/measure-population","code":"numerator","display":"Numerator"}]},"count":0}]}],"evaluatedResource":[{"reference":"Patient/405bb76e-a162-49ad-8b52-9f6f745efb64"},{"reference":"Observation/ippfail-under18-2"}]},"request":{"method":"PUT","url":"MeasureReport/6497dd20-af67-479a-8fc3-bdae2f5ee1cf"}}]}