{"resourceType":"Bundle","id":"tests-93a345b0-259a-4c1d-8c85-280a6e78a006-bundle","type":"transaction","entry":[{"fullUrl":"https://madie.cms.gov/Patient/93a345b0-259a-4c1d-8c85-280a6e78a006","resource":{"resourceType":"Patient","id":"93a345b0-259a-4c1d-8c85-280a6e78a006","meta":{"profile":["http://hl7.org/fhir/us/core/StructureDefinition/us-core-patient","http://hl7.org/fhir/us/qicore/StructureDefinition/qicore-patient"]},"extension":[{"url":"http://hl7.org/fhir/us/core/StructureDefinition/us-core-race","extension":[{"url":"ombCategory","valueCoding":{"system":"urn:oid:2.16.840.1.113883.6.238","code":"2028-9","display":"Asian"}},{"url":"text","valueString":"Asian"}]},{"url":"http://hl7.org/fhir/us/core/StructureDefinition/us-core-ethnicity","extension":[{"url":"ombCategory","valueCoding":{"system":"urn:oid:2.16.840.1.113883.6.238","code":"2135-2","display":"Hispanic or Latino"}},{"url":"text","valueString":"Hispanic or Latino"}]}],"identifier":[{"system":"http://hospital.smarthealthit.org","value":"999999995"}],"name":[{"family":"MissingResults","given":["DENOMFail"]}],"gender":"female","birthDate":"1986-06-12"},"request":{"method":"PUT","url":"Patient/93a345b0-259a-4c1d-8c85-280a6e78a006"}},{"fullUrl":"https://madie.cms.gov/Observation/denomfail-missingresults-2","resource":{"resourceType":"Observation","id":"denomfail-missingresults-2","meta":{"profile":["http://hl7.org/fhir/us/qicore/StructureDefinition/qicore-observation"]},"status":"final","category":[{"coding":[{"system":"http://terminology.hl7.org/CodeSystem/observation-category","code":"imaging","display":"Imaging"}]}],"code":{"coding":[{"system":"http://loinc.org","code":"96914-7","display":"CT dose and image quality category"}],"text":"CT dose and image quality category"},"subject":{"reference":"Patient/93a345b0-259a-4c1d-8c85-280a6e78a006"},"effectiveDateTime":"2025-03-02T00:00:00.000Z","valueCodeableConcept":{"coding":[{"system":"http://alaracare.com","code":"ABDOPEL RT","display":"Abdomen or Pelvis Routine Dose"}]}},"request":{"method":"PUT","url":"Observation/denomfail-missingresults-2"}},{"fullUrl":"https://madie.cms.gov/MeasureReport/b613bf64-b2ca-4a99-b937-76b8e36a4df4","resource":{"resourceType":"MeasureReport","id":"b613bf64-b2ca-4a99-b937-76b8e36a4df4","meta":{"profile":["http://hl7.org/fhir/us/cqfmeasures/StructureDefinition/test-case-cqfm"]},"contained":[{"resourceType":"Parameters","id":"ab586000-74f4-4cbb-b27f-d01cc410385d-parameters","parameter":[{"name":"subject","valueString":"93a345b0-259a-4c1d-8c85-280a6e78a006"}]}],"extension":[{"url":"http://hl7.org/fhir/us/cqfmeasures/StructureDefinition/cqfm-inputParameters","valueReference":{"reference":"#ab586000-74f4-4cbb-b27f-d01cc410385d-parameters"}},{"url":"http://hl7.org/fhir/us/cqfmeasures/StructureDefinition/cqfm-testCaseDescription","valueMarkdown":"Patient has a valid scan but it is missing result values"}],"modifierExtension":[{"url":"http://hl7.org/fhir/us/cqfmeasures/StructureDefinition/cqfm-isTestCase","valueBoolean":true}],"status":"complete","type":"individual","measure":"https://madie.cms.gov/Measure/AlaraCTFHIR","period":{"start":"2025-01-01","end":"2025-12-31"},"group":[{"population":[{"code":{"coding":[{"system":"http://terminology.hl7.org/CodeSystem/measure-population","code":"initial-population","display":"Initial Population"}]},"count":1},{"code":{"coding":[{"system":"http://terminology.hl7.org/CodeSystem/measure-population","code":"denominator","display":"Denominator"}]},"count":0},{"code":{"coding":[{"system":"http://terminology.hl7.org/CodeSystem/measure-population","code":"denominator-exclusion","display":"Denominator Exclusion"}]},"count":0},{"code":{"coding":[{"system":"http://terminology.hl7.org/CodeSystem/measure-population","code":"numerator","display":"Numerator"}]},"count":0}]}],"evaluatedResource":[{"reference":"Patient/93a345b0-259a-4c1d-8c85-280a6e78a006"},{"reference":"Observation/denomfail-missingresults-2"}]},"request":{"method":"PUT","url":"MeasureReport/b613bf64-b2ca-4a99-b937-76b8e36a4df4"}}]}