{"resourceType":"Bundle","id":"tests-dda878bb-eb46-4562-a455-862009c0f7ce-bundle","type":"transaction","entry":[{"fullUrl":"https://madie.cms.gov/Patient/dda878bb-eb46-4562-a455-862009c0f7ce","resource":{"resourceType":"Patient","id":"dda878bb-eb46-4562-a455-862009c0f7ce","meta":{"profile":["http://hl7.org/fhir/us/qicore/StructureDefinition/qicore-patient"]},"extension":[{"url":"http://hl7.org/fhir/us/core/StructureDefinition/us-core-race","extension":[{"url":"ombCategory","valueCoding":{"system":"urn:oid:2.16.840.1.113883.6.238","code":"2028-9","display":"Asian"}},{"url":"text","valueString":"Asian"}]},{"url":"http://hl7.org/fhir/us/core/StructureDefinition/us-core-ethnicity","extension":[{"url":"ombCategory","valueCoding":{"system":"urn:oid:2.16.840.1.113883.6.238","code":"2135-2","display":"Hispanic or Latino"}},{"url":"text","valueString":"Hispanic or Latino"}]}],"identifier":[{"system":"http://hospital.smarthealthit.org","value":"999999995"}],"name":[{"family":"Bertha","given":["Betty"]}],"gender":"female","birthDate":"2001-12-31"},"request":{"method":"PUT","url":"Patient/dda878bb-eb46-4562-a455-862009c0f7ce"}},{"fullUrl":"https://madie.cms.gov/Encounter/Encounter-14","resource":{"resourceType":"Encounter","id":"Encounter-14","meta":{"profile":["http://hl7.org/fhir/us/qicore/StructureDefinition/qicore-encounter"]},"status":"finished","class":{"system":"http://terminology.hl7.org/CodeSystem/v3-ActCode","code":"AMB","display":"ambulatory"},"type":[{"coding":[{"system":"http://www.ama-assn.org/go/cpt","version":"2023","code":"99385","display":"Initial comprehensive preventive medicine evaluation and management of an individual including an age and gender appropriate history, examination, counseling/anticipatory guidance/risk factor reduction interventions, and the ordering of laboratory/diagnostic procedures, new patient; 18-39 years"}]}],"subject":{"reference":"Patient/dda878bb-eb46-4562-a455-862009c0f7ce"},"period":{"start":"2025-01-01T00:00:00.000Z","end":"2025-01-01T00:15:00.000Z"}},"request":{"method":"PUT","url":"Encounter/Encounter-14"}},{"fullUrl":"https://madie.cms.gov/Condition/Condition-13","resource":{"resourceType":"Condition","id":"Condition-13","meta":{"profile":["http://hl7.org/fhir/us/qicore/StructureDefinition/qicore-condition"]},"clinicalStatus":{"coding":[{"system":"http://terminology.hl7.org/CodeSystem/condition-clinical","code":"active"}]},"category":[{"coding":[{"system":"http://terminology.hl7.org/CodeSystem/condition-category","code":"problem-list-item","display":"Problem List Item"}]}],"code":{"coding":[{"system":"http://snomed.info/sct","code":"111880001","display":"Acute human immunodeficiency virus infection (disorder)"}]},"subject":{"reference":"Patient/dda878bb-eb46-4562-a455-862009c0f7ce"},"onsetDateTime":"2025-01-01T00:00:00.000Z"},"request":{"method":"PUT","url":"Condition/Condition-13"}},{"fullUrl":"https://madie.cms.gov/Condition/Condition-14","resource":{"resourceType":"Condition","id":"Condition-14","meta":{"profile":["http://hl7.org/fhir/us/qicore/StructureDefinition/qicore-condition"]},"clinicalStatus":{"coding":[{"system":"http://terminology.hl7.org/CodeSystem/condition-clinical","code":"active"}]},"category":[{"coding":[{"system":"http://terminology.hl7.org/CodeSystem/condition-category","code":"problem-list-item","display":"Problem List Item"}]}],"code":{"coding":[{"system":"http://snomed.info/sct","code":"170935008","display":"Full care by hospice (finding)"}]},"subject":{"reference":"Patient/dda878bb-eb46-4562-a455-862009c0f7ce"},"onsetDateTime":"2025-12-31T23:59:59.000Z"},"request":{"method":"PUT","url":"Condition/Condition-14"}},{"fullUrl":"https://madie.cms.gov/MeasureReport/917ed625-d420-414b-89cd-f1af3500940b","resource":{"resourceType":"MeasureReport","id":"917ed625-d420-414b-89cd-f1af3500940b","meta":{"profile":["http://hl7.org/fhir/us/cqfmeasures/StructureDefinition/test-case-cqfm"]},"contained":[{"resourceType":"Parameters","id":"114ddf62-eb87-4a3c-a9a8-6f67f5c1830a-parameters","parameter":[{"name":"subject","valueString":"dda878bb-eb46-4562-a455-862009c0f7ce"}]}],"extension":[{"url":"http://hl7.org/fhir/us/cqfmeasures/StructureDefinition/cqfm-inputParameters","valueReference":{"reference":"#114ddf62-eb87-4a3c-a9a8-6f67f5c1830a-parameters"}},{"url":"http://hl7.org/fhir/us/cqfmeasures/StructureDefinition/cqfm-testCaseDescription","valueMarkdown":"Hospice condition overlaps measurement period"}],"modifierExtension":[{"url":"http://hl7.org/fhir/us/cqfmeasures/StructureDefinition/cqfm-isTestCase","valueBoolean":true}],"status":"complete","type":"individual","measure":"https://madie.cms.gov/Measure/ChlamydiaScreeninginWomenFHIR","period":{"start":"2025-01-01","end":"2025-12-31"},"group":[{"population":[{"code":{"coding":[{"system":"http://terminology.hl7.org/CodeSystem/measure-population","code":"initial-population","display":"Initial Population"}]},"count":1},{"code":{"coding":[{"system":"http://terminology.hl7.org/CodeSystem/measure-population","code":"denominator","display":"Denominator"}]},"count":1},{"code":{"coding":[{"system":"http://terminology.hl7.org/CodeSystem/measure-population","code":"denominator-exclusion","display":"Denominator Exclusion"}]},"count":1},{"code":{"coding":[{"system":"http://terminology.hl7.org/CodeSystem/measure-population","code":"numerator","display":"Numerator"}]},"count":0}]}],"evaluatedResource":[{"reference":"Patient/dda878bb-eb46-4562-a455-862009c0f7ce"},{"reference":"Encounter/Encounter-14"},{"reference":"Condition/Condition-13"},{"reference":"Condition/Condition-14"}]},"request":{"method":"PUT","url":"MeasureReport/917ed625-d420-414b-89cd-f1af3500940b"}}]}