{"resourceType":"Bundle","id":"tests-e0a4d4df-4602-4941-b5a1-608edd096bce-bundle","type":"transaction","entry":[{"fullUrl":"https://madie.cms.gov/Patient/e0a4d4df-4602-4941-b5a1-608edd096bce","resource":{"resourceType":"Patient","id":"e0a4d4df-4602-4941-b5a1-608edd096bce","meta":{"profile":["http://hl7.org/fhir/us/qicore/StructureDefinition/qicore-patient"]},"extension":[{"url":"http://hl7.org/fhir/us/core/StructureDefinition/us-core-race","extension":[{"url":"ombCategory","valueCoding":{"system":"urn:oid:2.16.840.1.113883.6.238","code":"2028-9","display":"Asian"}},{"url":"text","valueString":"Asian"}]},{"url":"http://hl7.org/fhir/us/core/StructureDefinition/us-core-ethnicity","extension":[{"url":"ombCategory","valueCoding":{"system":"urn:oid:2.16.840.1.113883.6.238","code":"2135-2","display":"Hispanic or Latino"}},{"url":"text","valueString":"Hispanic or Latino"}]}],"identifier":[{"system":"http://hospital.smarthealthit.org","value":"999999995"}],"name":[{"family":"Bertha","given":["Betty"]}],"gender":"female","birthDate":"2001-12-31"},"request":{"method":"PUT","url":"Patient/e0a4d4df-4602-4941-b5a1-608edd096bce"}},{"fullUrl":"https://madie.cms.gov/Encounter/Encounter-25","resource":{"resourceType":"Encounter","id":"Encounter-25","meta":{"profile":["http://hl7.org/fhir/us/qicore/StructureDefinition/qicore-encounter"]},"status":"finished","class":{"system":"http://terminology.hl7.org/CodeSystem/v3-ActCode","code":"AMB","display":"ambulatory"},"type":[{"coding":[{"system":"http://www.ama-assn.org/go/cpt","version":"2023","code":"99385","display":"Initial comprehensive preventive medicine evaluation and management of an individual including an age and gender appropriate history, examination, counseling/anticipatory guidance/risk factor reduction interventions, and the ordering of laboratory/diagnostic procedures, new patient; 18-39 years"}]}],"subject":{"reference":"Patient/e0a4d4df-4602-4941-b5a1-608edd096bce"},"period":{"start":"2025-01-01T00:00:00.000Z","end":"2025-01-01T00:15:00.000Z"}},"request":{"method":"PUT","url":"Encounter/Encounter-25"}},{"fullUrl":"https://madie.cms.gov/ServiceRequest/ServiceRequest-10","resource":{"resourceType":"ServiceRequest","id":"ServiceRequest-10","meta":{"profile":["http://hl7.org/fhir/us/qicore/StructureDefinition/qicore-servicerequest"]},"extension":[{"url":"http://hl7.org/fhir/StructureDefinition/request-statusReason","valueCodeableConcept":{"coding":[{"system":"http://snomed.info/sct","code":"15635006","display":"Requested by Patient"}]}}],"status":"completed","intent":"order","category":[{"coding":[{"system":"http://snomed.info/sct","code":"387713003","display":"Surgical procedure"}]}],"priority":"routine","code":{"coding":[{"system":"http://loinc.org","code":"10524-7","display":"Microscopic observation [Identifier] in Cervix by Cyto stain"}]},"subject":{"reference":"Patient/e0a4d4df-4602-4941-b5a1-608edd096bce"},"encounter":{"reference":"Encounter/Encounter-25"},"occurrenceDateTime":"2026-01-01","authoredOn":"2026-01-01","performerType":{"coding":[{"system":"http://snomed.info/sct","code":"405279007","display":"Attending physician (occupation)"}]},"reasonCode":[{"coding":[{"system":"http://snomed.info/sct","code":"123614006","display":"Partial Cataract (disorder)"}]}]},"request":{"method":"PUT","url":"ServiceRequest/ServiceRequest-10"}},{"fullUrl":"https://madie.cms.gov/MeasureReport/71542edf-4b5a-493d-bf3a-00eeaa3f8f00","resource":{"resourceType":"MeasureReport","id":"71542edf-4b5a-493d-bf3a-00eeaa3f8f00","meta":{"profile":["http://hl7.org/fhir/us/cqfmeasures/StructureDefinition/test-case-cqfm"]},"contained":[{"resourceType":"Parameters","id":"590bd5f3-ef42-4de5-92ef-7e84694f1962-parameters","parameter":[{"name":"subject","valueString":"e0a4d4df-4602-4941-b5a1-608edd096bce"}]}],"extension":[{"url":"http://hl7.org/fhir/us/cqfmeasures/StructureDefinition/cqfm-inputParameters","valueReference":{"reference":"#590bd5f3-ef42-4de5-92ef-7e84694f1962-parameters"}},{"url":"http://hl7.org/fhir/us/cqfmeasures/StructureDefinition/cqfm-testCaseDescription","valueMarkdown":"Pap test performed after the measurement period"}],"modifierExtension":[{"url":"http://hl7.org/fhir/us/cqfmeasures/StructureDefinition/cqfm-isTestCase","valueBoolean":true}],"status":"complete","type":"individual","measure":"https://madie.cms.gov/Measure/ChlamydiaScreeninginWomenFHIR","period":{"start":"2025-01-01","end":"2025-12-31"},"group":[{"population":[{"code":{"coding":[{"system":"http://terminology.hl7.org/CodeSystem/measure-population","code":"initial-population","display":"Initial Population"}]},"count":0},{"code":{"coding":[{"system":"http://terminology.hl7.org/CodeSystem/measure-population","code":"denominator","display":"Denominator"}]},"count":0},{"code":{"coding":[{"system":"http://terminology.hl7.org/CodeSystem/measure-population","code":"denominator-exclusion","display":"Denominator Exclusion"}]},"count":0},{"code":{"coding":[{"system":"http://terminology.hl7.org/CodeSystem/measure-population","code":"numerator","display":"Numerator"}]},"count":0}]}],"evaluatedResource":[{"reference":"Patient/e0a4d4df-4602-4941-b5a1-608edd096bce"},{"reference":"Encounter/Encounter-25"},{"reference":"ServiceRequest/ServiceRequest-10"}]},"request":{"method":"PUT","url":"MeasureReport/71542edf-4b5a-493d-bf3a-00eeaa3f8f00"}}]}