{"resourceType":"Bundle","id":"tests-7a50fe6a-2be1-4258-846a-5523aafc57d4-bundle","type":"transaction","entry":[{"fullUrl":"https://madie.cms.gov/Patient/7a50fe6a-2be1-4258-846a-5523aafc57d4","resource":{"resourceType":"Patient","id":"7a50fe6a-2be1-4258-846a-5523aafc57d4","meta":{"profile":["http://hl7.org/fhir/us/qicore/StructureDefinition/qicore-patient"]},"extension":[{"url":"http://hl7.org/fhir/us/core/StructureDefinition/us-core-race","extension":[{"url":"ombCategory","valueCoding":{"system":"urn:oid:2.16.840.1.113883.6.238","code":"2028-9","display":"Asian"}},{"url":"text","valueString":"Asian"}]},{"url":"http://hl7.org/fhir/us/core/StructureDefinition/us-core-ethnicity","extension":[{"url":"ombCategory","valueCoding":{"system":"urn:oid:2.16.840.1.113883.6.238","code":"2135-2","display":"Hispanic or Latino"}},{"url":"text","valueString":"Hispanic or Latino"}]}],"identifier":[{"system":"http://hospital.smarthealthit.org","value":"999999995"}],"name":[{"family":"Bertha","given":["Betty"]}],"gender":"female","birthDate":"2001-12-31"},"request":{"method":"PUT","url":"Patient/7a50fe6a-2be1-4258-846a-5523aafc57d4"}},{"fullUrl":"https://madie.cms.gov/Encounter/Encounter-23","resource":{"resourceType":"Encounter","id":"Encounter-23","meta":{"profile":["http://hl7.org/fhir/us/qicore/StructureDefinition/qicore-encounter"]},"status":"finished","class":{"system":"http://terminology.hl7.org/CodeSystem/v3-ActCode","code":"AMB","display":"ambulatory"},"type":[{"coding":[{"system":"http://snomed.info/sct","code":"185317003","display":"Telephone encounter (procedure)"}]}],"subject":{"reference":"Patient/7a50fe6a-2be1-4258-846a-5523aafc57d4"},"period":{"start":"2025-01-01T00:00:00.000Z","end":"2025-01-01T00:15:00.000Z"}},"request":{"method":"PUT","url":"Encounter/Encounter-23"}},{"fullUrl":"https://madie.cms.gov/Observation/Observation-3","resource":{"resourceType":"Observation","id":"Observation-3","meta":{"profile":["http://hl7.org/fhir/us/qicore/StructureDefinition/qicore-observation"]},"status":"final","category":[{"coding":[{"system":"http://terminology.hl7.org/CodeSystem/observation-category","code":"survey"}]}],"code":{"coding":[{"system":"http://loinc.org","code":"64728-9","display":"Have you ever had vaginal intercourse [PhenX]"}]},"subject":{"reference":"Patient/7a50fe6a-2be1-4258-846a-5523aafc57d4"},"effectivePeriod":{"start":"2025-12-31T00:00:00.000Z","end":"2025-12-31T00:15:00.000Z"},"valueCodeableConcept":{"coding":[{"system":"http://snomed.info/sct","code":"373066001","display":"Yes (qualifier value)"}]}},"request":{"method":"PUT","url":"Observation/Observation-3"}},{"fullUrl":"https://madie.cms.gov/MeasureReport/d20b3aec-70df-41cd-a885-7583a4a645bb","resource":{"resourceType":"MeasureReport","id":"d20b3aec-70df-41cd-a885-7583a4a645bb","meta":{"profile":["http://hl7.org/fhir/us/cqfmeasures/StructureDefinition/test-case-cqfm"]},"contained":[{"resourceType":"Parameters","id":"d48bac94-3891-4770-a147-6e1c57e58877-parameters","parameter":[{"name":"subject","valueString":"7a50fe6a-2be1-4258-846a-5523aafc57d4"}]}],"extension":[{"url":"http://hl7.org/fhir/us/cqfmeasures/StructureDefinition/cqfm-inputParameters","valueReference":{"reference":"#d48bac94-3891-4770-a147-6e1c57e58877-parameters"}},{"url":"http://hl7.org/fhir/us/cqfmeasures/StructureDefinition/cqfm-testCaseDescription","valueMarkdown":"Assessments for sexual activity during the measurement period"}],"modifierExtension":[{"url":"http://hl7.org/fhir/us/cqfmeasures/StructureDefinition/cqfm-isTestCase","valueBoolean":true}],"status":"complete","type":"individual","measure":"https://madie.cms.gov/Measure/ChlamydiaScreeninginWomenFHIR","period":{"start":"2025-01-01","end":"2025-12-31"},"group":[{"population":[{"code":{"coding":[{"system":"http://terminology.hl7.org/CodeSystem/measure-population","code":"initial-population","display":"Initial Population"}]},"count":1},{"code":{"coding":[{"system":"http://terminology.hl7.org/CodeSystem/measure-population","code":"denominator","display":"Denominator"}]},"count":1},{"code":{"coding":[{"system":"http://terminology.hl7.org/CodeSystem/measure-population","code":"denominator-exclusion","display":"Denominator Exclusion"}]},"count":0},{"code":{"coding":[{"system":"http://terminology.hl7.org/CodeSystem/measure-population","code":"numerator","display":"Numerator"}]},"count":0}]}],"evaluatedResource":[{"reference":"Patient/7a50fe6a-2be1-4258-846a-5523aafc57d4"},{"reference":"Encounter/Encounter-23"},{"reference":"Observation/Observation-3"}]},"request":{"method":"PUT","url":"MeasureReport/d20b3aec-70df-41cd-a885-7583a4a645bb"}}]}