{"resourceType":"Bundle","id":"tests-46f23b1f-64c6-4591-80af-da2e9127a4bc-bundle","type":"transaction","entry":[{"fullUrl":"https://madie.cms.gov/Patient/46f23b1f-64c6-4591-80af-da2e9127a4bc","resource":{"resourceType":"Patient","id":"46f23b1f-64c6-4591-80af-da2e9127a4bc","meta":{"profile":["http://hl7.org/fhir/us/qicore/StructureDefinition/qicore-patient"]},"extension":[{"url":"http://hl7.org/fhir/us/core/StructureDefinition/us-core-race","extension":[{"url":"ombCategory","valueCoding":{"system":"urn:oid:2.16.840.1.113883.6.238","code":"2028-9","display":"Asian"}},{"url":"text","valueString":"Asian"}]},{"url":"http://hl7.org/fhir/us/core/StructureDefinition/us-core-ethnicity","extension":[{"url":"ombCategory","valueCoding":{"system":"urn:oid:2.16.840.1.113883.6.238","code":"2135-2","display":"Hispanic or Latino"}},{"url":"text","valueString":"Hispanic or Latino"}]}],"identifier":[{"system":"http://hospital.smarthealthit.org","value":"999999995"}],"name":[{"family":"Bertha","given":["Betty"]}],"gender":"female","birthDate":"2001-12-31"},"request":{"method":"PUT","url":"Patient/46f23b1f-64c6-4591-80af-da2e9127a4bc"}},{"fullUrl":"https://madie.cms.gov/Encounter/Encounter-5","resource":{"resourceType":"Encounter","id":"Encounter-5","meta":{"profile":["http://hl7.org/fhir/us/qicore/StructureDefinition/qicore-encounter"]},"status":"finished","class":{"system":"http://terminology.hl7.org/CodeSystem/v3-ActCode","code":"AMB","display":"ambulatory"},"type":[{"coding":[{"system":"http://www.ama-assn.org/go/cpt","version":"2023","code":"99421","display":"Online digital evaluation and management service, for an established patient, for up to 7 days, cumulative time during the 7 days; 5-10 minutes"}]}],"subject":{"reference":"Patient/46f23b1f-64c6-4591-80af-da2e9127a4bc"},"period":{"start":"2025-01-01T00:00:00.000Z","end":"2025-01-01T00:15:00.000Z"}},"request":{"method":"PUT","url":"Encounter/Encounter-5"}},{"fullUrl":"https://madie.cms.gov/MedicationRequest/MedicationRequest-2","resource":{"resourceType":"MedicationRequest","id":"MedicationRequest-2","meta":{"profile":["http://hl7.org/fhir/us/qicore/StructureDefinition/qicore-medicationrequest"]},"status":"active","intent":"order","category":[{"coding":[{"system":"http://terminology.hl7.org/CodeSystem/medicationrequest-category","code":"discharge","display":"Discharge"}]}],"medicationCodeableConcept":{"coding":[{"system":"http://www.nlm.nih.gov/research/umls/rxnorm","code":"1000126","display":"1 ML medroxyprogesterone acetate 150 MG/ML Injection","userSelected":true}]},"subject":{"reference":"Patient/46f23b1f-64c6-4591-80af-da2e9127a4bc"},"authoredOn":"2025-01-01T00:00:00.000Z","requester":{"reference":"Practitioner/example"}},"request":{"method":"PUT","url":"MedicationRequest/MedicationRequest-2"}},{"fullUrl":"https://madie.cms.gov/MeasureReport/c4ed5b37-8ca0-4120-b39a-bce914e05019","resource":{"resourceType":"MeasureReport","id":"c4ed5b37-8ca0-4120-b39a-bce914e05019","meta":{"profile":["http://hl7.org/fhir/us/cqfmeasures/StructureDefinition/test-case-cqfm"]},"contained":[{"resourceType":"Parameters","id":"dd1a46ff-16d9-4803-b493-f5d56df4df6d-parameters","parameter":[{"name":"subject","valueString":"46f23b1f-64c6-4591-80af-da2e9127a4bc"}]}],"extension":[{"url":"http://hl7.org/fhir/us/cqfmeasures/StructureDefinition/cqfm-inputParameters","valueReference":{"reference":"#dd1a46ff-16d9-4803-b493-f5d56df4df6d-parameters"}},{"url":"http://hl7.org/fhir/us/cqfmeasures/StructureDefinition/cqfm-testCaseDescription","valueMarkdown":"Contraceptive medications ordered during the measurement period"}],"modifierExtension":[{"url":"http://hl7.org/fhir/us/cqfmeasures/StructureDefinition/cqfm-isTestCase","valueBoolean":true}],"status":"complete","type":"individual","measure":"https://madie.cms.gov/Measure/ChlamydiaScreeninginWomenFHIR","period":{"start":"2025-01-01","end":"2025-12-31"},"group":[{"population":[{"code":{"coding":[{"system":"http://terminology.hl7.org/CodeSystem/measure-population","code":"initial-population","display":"Initial Population"}]},"count":1},{"code":{"coding":[{"system":"http://terminology.hl7.org/CodeSystem/measure-population","code":"denominator","display":"Denominator"}]},"count":1},{"code":{"coding":[{"system":"http://terminology.hl7.org/CodeSystem/measure-population","code":"denominator-exclusion","display":"Denominator Exclusion"}]},"count":0},{"code":{"coding":[{"system":"http://terminology.hl7.org/CodeSystem/measure-population","code":"numerator","display":"Numerator"}]},"count":0}]}],"evaluatedResource":[{"reference":"Patient/46f23b1f-64c6-4591-80af-da2e9127a4bc"},{"reference":"Encounter/Encounter-5"},{"reference":"MedicationRequest/MedicationRequest-2"}]},"request":{"method":"PUT","url":"MeasureReport/c4ed5b37-8ca0-4120-b39a-bce914e05019"}}]}