{"resourceType":"Bundle","id":"tests-6e31a1eb-0d32-4a9b-aa86-ee34436f99c1-bundle","type":"transaction","entry":[{"fullUrl":"https://madie.cms.gov/Patient/6e31a1eb-0d32-4a9b-aa86-ee34436f99c1","resource":{"resourceType":"Patient","id":"6e31a1eb-0d32-4a9b-aa86-ee34436f99c1","meta":{"profile":["http://hl7.org/fhir/us/qicore/StructureDefinition/qicore-patient"]},"extension":[{"url":"http://hl7.org/fhir/us/core/StructureDefinition/us-core-race","extension":[{"url":"ombCategory","valueCoding":{"system":"urn:oid:2.16.840.1.113883.6.238","code":"2028-9","display":"Asian"}},{"url":"text","valueString":"Asian"}]},{"url":"http://hl7.org/fhir/us/core/StructureDefinition/us-core-ethnicity","extension":[{"url":"ombCategory","valueCoding":{"system":"urn:oid:2.16.840.1.113883.6.238","code":"2135-2","display":"Hispanic or Latino"}},{"url":"text","valueString":"Hispanic or Latino"}]}],"identifier":[{"system":"http://hospital.smarthealthit.org","value":"999999995"}],"name":[{"family":"Bertha","given":["Betty"]}],"gender":"female","birthDate":"2001-12-31"},"request":{"method":"PUT","url":"Patient/6e31a1eb-0d32-4a9b-aa86-ee34436f99c1"}},{"fullUrl":"https://madie.cms.gov/Encounter/Encounter-4","resource":{"resourceType":"Encounter","id":"d6b5d760-78b2-4bff-aa18-ed2345555b27","meta":{"profile":["http://hl7.org/fhir/us/qicore/StructureDefinition/qicore-encounter"]},"status":"finished","class":{"system":"http://terminology.hl7.org/CodeSystem/v3-ActCode","code":"AMB","display":"ambulatory"},"type":[{"coding":[{"system":"http://snomed.info/sct","code":"185463005","display":"Visit out of hours (procedure)"}]}],"subject":{"reference":"Patient/6e31a1eb-0d32-4a9b-aa86-ee34436f99c1"},"period":{"start":"2025-01-01T00:00:00.000Z","end":"2025-01-01T00:15:00.000Z"}},"request":{"method":"PUT","url":"Encounter/d6b5d760-78b2-4bff-aa18-ed2345555b27"}},{"fullUrl":"https://madie.cms.gov/MedicationRequest/MedicationRequest-1","resource":{"resourceType":"MedicationRequest","id":"d38a6f4c-318b-4e34-953c-a6fb4e4f23ee","meta":{"profile":["http://hl7.org/fhir/us/qicore/StructureDefinition/qicore-medicationrequest"]},"status":"active","intent":"order","category":[{"coding":[{"system":"http://terminology.hl7.org/CodeSystem/medicationrequest-category","code":"discharge","display":"Discharge"}]}],"medicationCodeableConcept":{"coding":[{"system":"http://www.nlm.nih.gov/research/umls/rxnorm","code":"1000126","display":"1 ML medroxyprogesterone acetate 150 MG/ML Injection","userSelected":true}]},"subject":{"reference":"Patient/6e31a1eb-0d32-4a9b-aa86-ee34436f99c1"},"authoredOn":"2025-12-30T00:00:00.000Z","requester":{"reference":"Practitioner/example"},"dosageInstruction":[{"timing":{"repeat":{"boundsPeriod":{"start":"2025-12-30T00:00:00.000Z","end":"2026-01-01T00:00:00.000Z"}}}}]},"request":{"method":"PUT","url":"MedicationRequest/d38a6f4c-318b-4e34-953c-a6fb4e4f23ee"}},{"fullUrl":"https://madie.cms.gov/MeasureReport/d107d877-bf60-40e3-af32-e0a31021aaec","resource":{"resourceType":"MeasureReport","id":"d107d877-bf60-40e3-af32-e0a31021aaec","meta":{"profile":["http://hl7.org/fhir/us/cqfmeasures/StructureDefinition/test-case-cqfm"]},"contained":[{"resourceType":"Parameters","id":"f2a0e722-e738-44be-906e-9c54f5e7d31a-parameters","parameter":[{"name":"subject","valueString":"6e31a1eb-0d32-4a9b-aa86-ee34436f99c1"}]}],"extension":[{"url":"http://hl7.org/fhir/us/cqfmeasures/StructureDefinition/cqfm-inputParameters","valueReference":{"reference":"#f2a0e722-e738-44be-906e-9c54f5e7d31a-parameters"}},{"url":"http://hl7.org/fhir/us/cqfmeasures/StructureDefinition/cqfm-testCaseDescription","valueMarkdown":"Contraceptive medications active during the measurement period"}],"modifierExtension":[{"url":"http://hl7.org/fhir/us/cqfmeasures/StructureDefinition/cqfm-isTestCase","valueBoolean":true}],"status":"complete","type":"individual","measure":"https://madie.cms.gov/Measure/ChlamydiaScreeninginWomenFHIR","period":{"start":"2025-01-01","end":"2025-12-31"},"group":[{"population":[{"code":{"coding":[{"system":"http://terminology.hl7.org/CodeSystem/measure-population","code":"initial-population","display":"Initial Population"}]},"count":1},{"code":{"coding":[{"system":"http://terminology.hl7.org/CodeSystem/measure-population","code":"denominator","display":"Denominator"}]},"count":1},{"code":{"coding":[{"system":"http://terminology.hl7.org/CodeSystem/measure-population","code":"denominator-exclusion","display":"Denominator Exclusion"}]},"count":0},{"code":{"coding":[{"system":"http://terminology.hl7.org/CodeSystem/measure-population","code":"numerator","display":"Numerator"}]},"count":0}]}]},"request":{"method":"PUT","url":"MeasureReport/d107d877-bf60-40e3-af32-e0a31021aaec"}}]}