{
  "resourceType": "Bundle",
  "id": "60f82c2f98086b570510e2ba",
  "type": "transaction",
  "entry": [ {
    "fullUrl": "https://madie.cms.gov/Patient/155afb0b-baef-4e1a-8255-dd3bc96c9c0d",
    "resource": {
      "resourceType": "Patient",
      "id": "155afb0b-baef-4e1a-8255-dd3bc96c9c0d",
      "meta": {
        "profile": [ "http://hl7.org/fhir/us/qicore/StructureDefinition/qicore-patient" ]
      },
      "text": {
        "status": "generated",
        "div": "<div xmlns=\"http://www.w3.org/1999/xhtml\"><div class=\"hapiHeaderText\">PharmContra2DayAftObs_ED&lt;1hrDayOfObs&lt;1hrDayAftBFEnc <b>DENEXCEPFAIL </b></div><table class=\"hapiPropertyTable\"><tbody><tr><td>Identifier</td><td>0103105e2f27712406d6c0e67f07d973c7aef843dfe22913e133b63fea98440f</td></tr><tr><td>Date of birth</td><td><span>26 September 1975</span></td></tr></tbody></table></div>"
      },
      "extension": [ {
        "url": "http://hl7.org/fhir/us/core/StructureDefinition/us-core-race",
        "extension": [ {
          "url": "ombCategory",
          "valueCoding": {
            "system": "urn:oid:2.16.840.1.113883.6.238",
            "code": "2054-5",
            "display": "Black or African American",
            "userSelected": true
          }
        }, {
          "url": "text",
          "valueString": "Black or African American"
        } ]
      }, {
        "url": "http://hl7.org/fhir/us/core/StructureDefinition/us-core-ethnicity",
        "extension": [ {
          "url": "ombCategory",
          "valueCoding": {
            "system": "urn:oid:2.16.840.1.113883.6.238",
            "code": "2186-5",
            "display": "Not Hispanic or Latino",
            "userSelected": true
          }
        }, {
          "url": "text",
          "valueString": "Not Hispanic or Latino"
        } ]
      } ],
      "identifier": [ {
        "type": {
          "coding": [ {
            "system": "http://terminology.hl7.org/CodeSystem/v2-0203",
            "code": "MR"
          } ]
        },
        "system": "https://bonnie-fhir.healthit.gov/",
        "value": "60f82c2f98086b570510e2ba"
      } ],
      "active": true,
      "name": [ {
        "use": "usual",
        "family": "DENEXCEPFail",
        "given": [ "PharmContra2DayAftObs_ED<1hrDayOfObs<1hrDayAftBFEnc" ]
      } ],
      "gender": "female",
      "birthDate": "1975-09-26"
    },
    "request": {
      "method": "PUT",
      "url": "Patient/155afb0b-baef-4e1a-8255-dd3bc96c9c0d"
    }
  }, {
    "fullUrl": "https://madie.cms.gov/Encounter/5c954895b848462de0ae6331",
    "resource": {
      "resourceType": "Encounter",
      "id": "5c954895b848462de0ae6331",
      "meta": {
        "profile": [ "http://hl7.org/fhir/us/qicore/StructureDefinition/qicore-encounter" ]
      },
      "status": "finished",
      "class": {
        "system": "http://terminology.hl7.org/CodeSystem/v3-ActCode",
        "code": "EMER",
        "display": "emergency",
        "userSelected": true
      },
      "type": [ {
        "coding": [ {
          "system": "http://snomed.info/sct",
          "code": "4525004"
        } ]
      } ],
      "subject": {
        "reference": "Patient/155afb0b-baef-4e1a-8255-dd3bc96c9c0d"
      },
      "period": {
        "start": "2025-10-10T09:00:00.000+00:00",
        "end": "2025-10-10T09:15:00.000+00:00"
      },
      "length": {
        "value": 0.0,
        "unit": "days"
      }
    },
    "request": {
      "method": "PUT",
      "url": "Encounter/5c954895b848462de0ae6331"
    }
  }, {
    "fullUrl": "https://madie.cms.gov/Encounter/5c954895b848462de0ae6332",
    "resource": {
      "resourceType": "Encounter",
      "id": "5c954895b848462de0ae6332",
      "meta": {
        "profile": [ "http://hl7.org/fhir/us/qicore/StructureDefinition/qicore-encounter" ]
      },
      "status": "finished",
      "class": {
        "system": "http://terminology.hl7.org/CodeSystem/v3-ActCode",
        "code": "OBSENC",
        "display": "observation encounter",
        "userSelected": true
      },
      "type": [ {
        "coding": [ {
          "system": "http://snomed.info/sct",
          "code": "448951000124107"
        } ]
      } ],
      "subject": {
        "reference": "Patient/155afb0b-baef-4e1a-8255-dd3bc96c9c0d"
      },
      "period": {
        "start": "2025-10-10T09:16:00.000+00:00",
        "end": "2025-10-12T23:59:00.000+00:00"
      },
      "length": {
        "value": 2.0,
        "unit": "days"
      }
    },
    "request": {
      "method": "PUT",
      "url": "Encounter/5c954895b848462de0ae6332"
    }
  }, {
    "fullUrl": "https://madie.cms.gov/Encounter/5c954895b848462de0ae6333",
    "resource": {
      "resourceType": "Encounter",
      "id": "5c954895b848462de0ae6333",
      "meta": {
        "profile": [ "http://hl7.org/fhir/us/qicore/StructureDefinition/qicore-encounter" ]
      },
      "status": "finished",
      "class": {
        "system": "http://terminology.hl7.org/CodeSystem/v3-ActCode",
        "code": "IMP",
        "display": "inpatient encounter",
        "userSelected": true
      },
      "type": [ {
        "coding": [ {
          "system": "http://snomed.info/sct",
          "code": "32485007"
        } ]
      } ],
      "subject": {
        "reference": "Patient/155afb0b-baef-4e1a-8255-dd3bc96c9c0d"
      },
      "period": {
        "start": "2025-10-13T00:00:00.000+00:00",
        "end": "2025-10-17T11:15:00.000+00:00"
      },
      "length": {
        "value": 4.0,
        "unit": "days"
      },
      "diagnosis": [ {
        "condition": {
          "reference": "Condition/ischemic-stroke-2cfa"
        },
        "use": {
          "coding": [ {
            "system": "http://snomed.info/sct",
            "code": "111297002",
            "display": "Ischemic Stroke"
          } ]
        },
        "rank": 1
      } ]
    },
    "request": {
      "method": "PUT",
      "url": "Encounter/5c954895b848462de0ae6333"
    }
  }, {
    "fullUrl": "https://madie.cms.gov/MedicationAdministration/5de6c3375b87f90000eaf1e1",
    "resource": {
      "resourceType": "MedicationAdministration",
      "id": "5de6c3375b87f90000eaf1e1",
      "meta": {
        "profile": [ "http://hl7.org/fhir/us/qicore/StructureDefinition/qicore-medicationadministration" ]
      },
      "status": "completed",
      "medicationCodeableConcept": {
        "coding": [ {
          "system": "http://www.nlm.nih.gov/research/umls/rxnorm",
          "code": "1116635"
        } ]
      },
      "subject": {
        "reference": "Patient/155afb0b-baef-4e1a-8255-dd3bc96c9c0d"
      },
      "effectivePeriod": {
        "start": "2025-10-12T23:59:00+00:00"
      }
    },
    "request": {
      "method": "PUT",
      "url": "MedicationAdministration/5de6c3375b87f90000eaf1e1"
    }
  }, {
    "fullUrl": "https://madie.cms.gov/Coverage/5e20a3721c76ba6c5896ec1d",
    "resource": {
      "resourceType": "Coverage",
      "id": "5e20a3721c76ba6c5896ec1d",
      "status": "active",
      "beneficiary": {
        "reference": "Patient/155afb0b-baef-4e1a-8255-dd3bc96c9c0d"
      },
      "period": {
        "start": "1975-09-26T08:00:00+00:00"
      },
      "payor": [ {
        "reference": "Organization/Org-123456"
      } ]
    },
    "request": {
      "method": "PUT",
      "url": "Coverage/5e20a3721c76ba6c5896ec1d"
    }
  }, {
    "fullUrl": "https://madie.cms.gov/Condition/ischemic-stroke-2cfa",
    "resource": {
      "resourceType": "Condition",
      "id": "ischemic-stroke-2cfa",
      "meta": {
        "profile": [ "http://hl7.org/fhir/us/qicore/StructureDefinition/qicore-condition" ]
      },
      "clinicalStatus": {
        "coding": [ {
          "system": "http://terminology.hl7.org/CodeSystem/condition-clinical",
          "code": "active"
        } ]
      },
      "verificationStatus": {
        "coding": [ {
          "system": "http://terminology.hl7.org/CodeSystem/condition-ver-status",
          "code": "confirmed"
        } ]
      },
      "category": [ {
        "coding": [ {
          "system": "http://terminology.hl7.org/CodeSystem/condition-category",
          "code": "encounter-diagnosis",
          "display": "Encounter Diagnosis"
        } ]
      } ],
      "code": {
        "coding": [ {
          "system": "http://snomed.info/sct",
          "version": "2020-09",
          "code": "111297002",
          "display": "Nonparalytic stroke (disorder)",
          "userSelected": true
        } ]
      },
      "subject": {
        "reference": "Patient/155afb0b-baef-4e1a-8255-dd3bc96c9c0d"
      },
      "recordedDate": "2025-08-03T08:00:00.000+00:00"
    },
    "request": {
      "method": "PUT",
      "url": "Condition/ischemic-stroke-2cfa"
    }
  }, {
    "fullUrl": "https://madie.cms.gov/Organization/123456",
    "resource": {
      "resourceType": "Organization",
      "id": "Org-123456",
      "meta": {
        "profile": [ "http://hl7.org/fhir/us/qicore/StructureDefinition/qicore-organization" ]
      },
      "identifier": [ {
        "use": "temp",
        "system": "urn:oid:2.16.840.1.113883.4.4",
        "value": "21-3259825"
      } ],
      "active": true,
      "type": [ {
        "coding": [ {
          "system": "http://terminology.hl7.org/CodeSystem/organization-type",
          "code": "pay",
          "display": "Payer"
        } ]
      } ],
      "name": "Blue Cross Blue Shield of Texas",
      "telecom": [ {
        "system": "phone",
        "value": "(+1) 972-766-6900"
      } ],
      "address": [ {
        "use": "billing",
        "type": "postal",
        "line": [ "P.O. Box 660044" ],
        "city": "Dallas",
        "state": "TX",
        "postalCode": "75266-0044",
        "country": "USA"
      } ]
    },
    "request": {
      "method": "PUT",
      "url": "Organization/Org-123456"
    }
  }, {
    "fullUrl": "https://madie.cms.gov/MeasureReport/e02d6b2c-b815-4d48-afb3-876afcce8bcb",
    "resource": {
      "resourceType": "MeasureReport",
      "id": "e02d6b2c-b815-4d48-afb3-876afcce8bcb",
      "meta": {
        "profile": [ "http://hl7.org/fhir/us/cqfmeasures/StructureDefinition/test-case-cqfm" ]
      },
      "contained": [ {
        "resourceType": "Parameters",
        "id": "d19fc2b6-6aea-4672-8216-7012fc5e95a4-parameters",
        "parameter": [ {
          "name": "subject",
          "valueString": "155afb0b-baef-4e1a-8255-dd3bc96c9c0d"
        } ]
      } ],
      "extension": [ {
        "url": "http://hl7.org/fhir/us/cqfmeasures/StructureDefinition/cqfm-inputParameters",
        "valueReference": {
          "reference": "#d19fc2b6-6aea-4672-8216-7012fc5e95a4-parameters"
        }
      }, {
        "url": "http://hl7.org/fhir/us/cqfmeasures/StructureDefinition/cqfm-testCaseDescription",
        "valueMarkdown": "Patient receives Ticagrelor during Obs, 2 days after Obs starts. ED ends 1 min before Obs.Obs ends 1 min before IP start at midnight. Testing Day of operator with HospitalizationWithObservation function.\n"
      } ],
      "modifierExtension": [ {
        "url": "http://hl7.org/fhir/us/cqfmeasures/StructureDefinition/cqfm-isTestCase",
        "valueBoolean": true
      } ],
      "status": "complete",
      "type": "individual",
      "measure": "https://madie.cms.gov/Measure/AntithromboticTherapyByEndofHospitalDay2FHIR",
      "period": {
        "start": "2025-01-01",
        "end": "2025-12-31"
      },
      "group": [ {
        "population": [ {
          "code": {
            "coding": [ {
              "system": "http://terminology.hl7.org/CodeSystem/measure-population",
              "code": "initial-population",
              "display": "Initial Population"
            } ]
          },
          "count": 1
        }, {
          "code": {
            "coding": [ {
              "system": "http://terminology.hl7.org/CodeSystem/measure-population",
              "code": "denominator",
              "display": "Denominator"
            } ]
          },
          "count": 1
        }, {
          "code": {
            "coding": [ {
              "system": "http://terminology.hl7.org/CodeSystem/measure-population",
              "code": "denominator-exclusion",
              "display": "Denominator Exclusion"
            } ]
          },
          "count": 0
        }, {
          "code": {
            "coding": [ {
              "system": "http://terminology.hl7.org/CodeSystem/measure-population",
              "code": "numerator",
              "display": "Numerator"
            } ]
          },
          "count": 0
        }, {
          "code": {
            "coding": [ {
              "system": "http://terminology.hl7.org/CodeSystem/measure-population",
              "code": "denominator-exception",
              "display": "Denominator Exception"
            } ]
          },
          "count": 0
        } ]
      } ],
      "evaluatedResource": [ {
        "reference": "Patient/155afb0b-baef-4e1a-8255-dd3bc96c9c0d"
      }, {
        "reference": "Encounter/5c954895b848462de0ae6331"
      }, {
        "reference": "Encounter/5c954895b848462de0ae6332"
      }, {
        "reference": "Encounter/5c954895b848462de0ae6333"
      }, {
        "reference": "MedicationAdministration/5de6c3375b87f90000eaf1e1"
      }, {
        "reference": "Coverage/5e20a3721c76ba6c5896ec1d"
      }, {
        "reference": "Condition/ischemic-stroke-2cfa"
      }, {
        "reference": "Organization/Org-123456"
      } ]
    },
    "request": {
      "method": "PUT",
      "url": "MeasureReport/e02d6b2c-b815-4d48-afb3-876afcce8bcb"
    }
  } ]
}