{"resourceType":"Bundle","id":"tests-3023ca44-3a4f-4be3-931b-784e9c9c46e9-bundle","type":"transaction","entry":[{"fullUrl":"https://madie.cms.gov/Patient/3023ca44-3a4f-4be3-931b-784e9c9c46e9","resource":{"resourceType":"Patient","id":"3023ca44-3a4f-4be3-931b-784e9c9c46e9","meta":{"profile":["http://hl7.org/fhir/us/qicore/StructureDefinition/qicore-patient"]},"text":{"status":"generated","div":"<div xmlns=\"http://www.w3.org/1999/xhtml\"><div class=\"hapiHeaderText\">CMOdurObs_ED&gt;1hrObs&gt;1hrBFEnc <b>DENEXFAIL </b></div><table class=\"hapiPropertyTable\"><tbody><tr><td>Identifier</td><td>013c7df93f5b4b7bbcd2a75a8b429b2c</td></tr><tr><td>Date of birth</td><td><span>18 September 1985</span></td></tr></tbody></table></div>"},"extension":[{"url":"http://hl7.org/fhir/us/core/StructureDefinition/us-core-race","extension":[{"url":"ombCategory","valueCoding":{"system":"urn:oid:2.16.840.1.113883.6.238","code":"1002-5","display":"American Indian or Alaska Native","userSelected":true}},{"url":"text","valueString":"American Indian or Alaska Native"}]},{"url":"http://hl7.org/fhir/us/core/StructureDefinition/us-core-ethnicity","extension":[{"url":"ombCategory","valueCoding":{"system":"urn:oid:2.16.840.1.113883.6.238","code":"2135-2","display":"Hispanic or Latino","userSelected":true}},{"url":"text","valueString":"Hispanic or Latino"}]}],"identifier":[{"type":{"coding":[{"system":"http://terminology.hl7.org/CodeSystem/v2-0203","code":"MR"}]},"system":"https://bonnie-fhir.healthit.gov/","value":"633c9d030968f8012250fc8a"}],"active":true,"name":[{"use":"usual","family":"DENEXFail","given":["CMOdurObs_ED>1hrObs>1hrBFEnc"]}],"gender":"female","birthDate":"1985-09-18"},"request":{"method":"PUT","url":"Patient/3023ca44-3a4f-4be3-931b-784e9c9c46e9"}},{"fullUrl":"https://madie.cms.gov/Condition/5c953f97b848462de0ae412b","resource":{"resourceType":"Condition","id":"a73bc31a-0aba-42e1-af60-0e413ea3bc36","meta":{"profile":["http://hl7.org/fhir/us/qicore/StructureDefinition/qicore-condition"]},"clinicalStatus":{"coding":[{"system":"http://terminology.hl7.org/CodeSystem/condition-clinical","code":"inactive"}]},"verificationStatus":{"coding":[{"system":"http://terminology.hl7.org/CodeSystem/condition-ver-status","code":"confirmed"}]},"category":[{"coding":[{"system":"http://terminology.hl7.org/CodeSystem/condition-category","code":"encounter-diagnosis","display":"Encounter Diagnosis"}]}],"code":{"coding":[{"system":"http://hl7.org/fhir/sid/icd-9-cm","code":"427.31"},{"system":"http://hl7.org/fhir/sid/icd-10-cm","code":"I48.0"},{"system":"http://snomed.info/sct","code":"5370000"}]},"subject":{"reference":"Patient/3023ca44-3a4f-4be3-931b-784e9c9c46e9"},"onsetDateTime":"2025-10-01T09:00:00.000Z","abatementDateTime":"2025-10-12T00:15:00.000Z"},"request":{"method":"PUT","url":"Condition/a73bc31a-0aba-42e1-af60-0e413ea3bc36"}},{"fullUrl":"https://madie.cms.gov/Encounter/5c953f97b848462de0ae412c","resource":{"resourceType":"Encounter","id":"e9171369-d464-4a60-8b7f-f48614d0d686","meta":{"profile":["http://hl7.org/fhir/us/qicore/StructureDefinition/qicore-encounter"]},"status":"finished","class":{"system":"http://terminology.hl7.org/CodeSystem/v3-ActCode","code":"EMER","display":"emergency"},"type":[{"coding":[{"system":"http://snomed.info/sct","code":"4525004"}]}],"subject":{"reference":"Patient/3023ca44-3a4f-4be3-931b-784e9c9c46e9"},"period":{"start":"2025-09-30T06:59:00.000Z","end":"2025-09-30T07:00:00.000Z"},"length":{"value":0,"unit":"days"}},"request":{"method":"PUT","url":"Encounter/e9171369-d464-4a60-8b7f-f48614d0d686"}},{"fullUrl":"https://madie.cms.gov/Encounter/5c953f97b848462de0ae412d","resource":{"resourceType":"Encounter","id":"9d20b28a-1c9f-4f3b-8c16-22664aa4bbd7","meta":{"profile":["http://hl7.org/fhir/us/qicore/StructureDefinition/qicore-encounter"]},"status":"finished","class":{"system":"http://terminology.hl7.org/CodeSystem/v3-ActCode","code":"OBSENC","display":"observation encounter"},"type":[{"coding":[{"system":"http://snomed.info/sct","code":"448851000124103"}]}],"subject":{"reference":"Patient/3023ca44-3a4f-4be3-931b-784e9c9c46e9"},"period":{"start":"2025-09-30T08:00:00.000Z","end":"2025-09-30T08:05:00.000Z"},"length":{"value":0,"unit":"days"}},"request":{"method":"PUT","url":"Encounter/9d20b28a-1c9f-4f3b-8c16-22664aa4bbd7"}},{"fullUrl":"https://madie.cms.gov/Encounter/5c953f97b848462de0ae412e","resource":{"resourceType":"Encounter","id":"5d4b44ef-5db8-432a-8c7a-65abca62b0c6","meta":{"profile":["http://hl7.org/fhir/us/qicore/StructureDefinition/qicore-encounter"]},"status":"finished","class":{"system":"http://terminology.hl7.org/CodeSystem/v3-ActCode","code":"IMP","display":"inpatient encounter"},"type":[{"coding":[{"system":"http://snomed.info/sct","code":"32485007"}]}],"subject":{"reference":"Patient/3023ca44-3a4f-4be3-931b-784e9c9c46e9"},"period":{"start":"2025-09-30T09:06:00.000Z","end":"2025-10-12T00:15:00.000Z"},"length":{"value":12,"unit":"days"},"diagnosis":[{"condition":{"reference":"Condition/ischemic-stroke-1959"},"use":{"coding":[{"system":"http://terminology.hl7.org/CodeSystem/diagnosis-role","code":"billing","display":"Billing"}]},"rank":1}],"hospitalization":{"dischargeDisposition":{"coding":[{"system":"http://snomed.info/sct","code":"10161009","display":"Discharge To Home Or Police Custody"}]}}},"request":{"method":"PUT","url":"Encounter/5d4b44ef-5db8-432a-8c7a-65abca62b0c6"}},{"fullUrl":"https://madie.cms.gov/ServiceRequest/5c953f97b848462de0ae4130","resource":{"resourceType":"ServiceRequest","id":"4e238d14-c2a3-4c72-b589-6f7a701e6cea","meta":{"profile":["http://hl7.org/fhir/us/qicore/StructureDefinition/qicore-servicerequest"]},"status":"active","intent":"order","code":{"coding":[{"system":"http://snomed.info/sct","code":"133918004"}]},"subject":{"reference":"Patient/3023ca44-3a4f-4be3-931b-784e9c9c46e9"},"authoredOn":"2025-09-30T08:01:00.000+00:00"},"request":{"method":"PUT","url":"ServiceRequest/4e238d14-c2a3-4c72-b589-6f7a701e6cea"}},{"fullUrl":"https://madie.cms.gov/Coverage/5f2c53cc1c76ba5c9960573e","resource":{"resourceType":"Coverage","id":"8dd78b87-aded-459b-b01b-4846346898b2","status":"active","beneficiary":{"reference":"Patient/3023ca44-3a4f-4be3-931b-784e9c9c46e9"},"period":{"start":"1985-09-18T08:00:00.000Z"},"payor":[{"reference":"Organization/9e9b3f13-a353-4173-b29b-947d6f1f2031"}]},"request":{"method":"PUT","url":"Coverage/8dd78b87-aded-459b-b01b-4846346898b2"}},{"fullUrl":"https://madie.cms.gov/Condition/ischemic-stroke-1959","resource":{"resourceType":"Condition","id":"e2440797-832c-46a6-b03d-814d9f8751e7","meta":{"profile":["http://hl7.org/fhir/us/qicore/StructureDefinition/qicore-condition"]},"clinicalStatus":{"coding":[{"system":"http://terminology.hl7.org/CodeSystem/condition-clinical","code":"active"}]},"verificationStatus":{"coding":[{"system":"http://terminology.hl7.org/CodeSystem/condition-ver-status","code":"confirmed"}]},"category":[{"coding":[{"system":"http://terminology.hl7.org/CodeSystem/condition-category","code":"encounter-diagnosis","display":"Encounter Diagnosis"}]}],"code":{"coding":[{"system":"http://snomed.info/sct","version":"2021-09","code":"111297002","display":"Nonparalytic stroke (disorder)","userSelected":true}]},"subject":{"reference":"Patient/3023ca44-3a4f-4be3-931b-784e9c9c46e9"},"recordedDate":"2025-10-13T08:00:00.000+00:00"},"request":{"method":"PUT","url":"Condition/e2440797-832c-46a6-b03d-814d9f8751e7"}},{"fullUrl":"https://madie.cms.gov/Organization/123456","resource":{"resourceType":"Organization","id":"9e9b3f13-a353-4173-b29b-947d6f1f2031","meta":{"profile":["http://hl7.org/fhir/us/qicore/StructureDefinition/qicore-organization"]},"identifier":[{"use":"temp","system":"urn:oid:2.16.840.1.113883.4.4","value":"21-3259825"}],"active":true,"type":[{"coding":[{"system":"http://terminology.hl7.org/CodeSystem/organization-type","code":"pay","display":"Payer"}]}],"name":"Blue Cross Blue Shield of Texas","telecom":[{"system":"phone","value":"(+1) 972-766-6900"}],"address":[{"use":"billing","type":"postal","line":["P.O. Box 660044"],"city":"Dallas","state":"TX","postalCode":"75266-0044","country":"USA"}]},"request":{"method":"PUT","url":"Organization/9e9b3f13-a353-4173-b29b-947d6f1f2031"}},{"fullUrl":"https://madie.cms.gov/Practitioner/practitioner-123456","resource":{"resourceType":"Practitioner","id":"aa0984f4-40e2-4e9e-9292-d0a7687d6b5a","identifier":[{"system":"http://hl7.org/fhir/sid/us-npi","value":"123456"}],"name":[{"family":"Evil","prefix":["Dr"]}]},"request":{"method":"PUT","url":"Practitioner/aa0984f4-40e2-4e9e-9292-d0a7687d6b5a"}},{"fullUrl":"https://madie.cms.gov/MeasureReport/cded01a2-df9d-44da-a699-e8b7fe706075","resource":{"resourceType":"MeasureReport","id":"cded01a2-df9d-44da-a699-e8b7fe706075","meta":{"profile":["http://hl7.org/fhir/us/cqfmeasures/StructureDefinition/test-case-cqfm"]},"contained":[{"resourceType":"Parameters","id":"b6e206dd-743f-42c9-9cb2-a731b5669609-parameters","parameter":[{"name":"subject","valueString":"3023ca44-3a4f-4be3-931b-784e9c9c46e9"}]}],"extension":[{"url":"http://hl7.org/fhir/us/cqfmeasures/StructureDefinition/cqfm-inputParameters","valueReference":{"reference":"#b6e206dd-743f-42c9-9cb2-a731b5669609-parameters"}},{"url":"http://hl7.org/fhir/us/cqfmeasures/StructureDefinition/cqfm-testCaseDescription","valueMarkdown":"Patient receives CMO order during Observation. ED visit ends 61 min. before Obs start, Obs ends 61 min before Inpatient encounter. Testing HospitalizationWithObservation function.\n"}],"modifierExtension":[{"url":"http://hl7.org/fhir/us/cqfmeasures/StructureDefinition/cqfm-isTestCase","valueBoolean":true}],"status":"complete","type":"individual","measure":"https://madie.cms.gov/Measure/AnticoagulationTherapyforAtrialFibrillationFlutterFHIR","period":{"start":"2025-01-01","end":"2025-12-31"},"group":[{"population":[{"code":{"coding":[{"system":"http://terminology.hl7.org/CodeSystem/measure-population","code":"initial-population","display":"Initial Population"}]},"count":1},{"code":{"coding":[{"system":"http://terminology.hl7.org/CodeSystem/measure-population","code":"denominator","display":"Denominator"}]},"count":1},{"code":{"coding":[{"system":"http://terminology.hl7.org/CodeSystem/measure-population","code":"denominator-exclusion","display":"Denominator Exclusion"}]},"count":0},{"code":{"coding":[{"system":"http://terminology.hl7.org/CodeSystem/measure-population","code":"numerator","display":"Numerator"}]},"count":0},{"code":{"coding":[{"system":"http://terminology.hl7.org/CodeSystem/measure-population","code":"denominator-exception","display":"Denominator Exception"}]},"count":0}]}]},"request":{"method":"PUT","url":"MeasureReport/cded01a2-df9d-44da-a699-e8b7fe706075"}}]}