{"resourceType":"Bundle","id":"tests-738b6035-5d45-42c6-a519-7ae0787902c2-bundle","type":"transaction","entry":[{"fullUrl":"https://madie.cms.gov/Patient/738b6035-5d45-42c6-a519-7ae0787902c2","resource":{"resourceType":"Patient","id":"738b6035-5d45-42c6-a519-7ae0787902c2","meta":{"profile":["http://hl7.org/fhir/us/qicore/StructureDefinition/qicore-patient"]},"text":{"status":"generated","div":"<div xmlns=\"http://www.w3.org/1999/xhtml\"><div class=\"hapiHeaderText\">MedRsnStartTmEQEncDisch <b>DENEXCEPPASS </b></div><table class=\"hapiPropertyTable\"><tbody><tr><td>Identifier</td><td>84bf01a3a4b2ad7236a26c94c57abf45</td></tr><tr><td>Date of birth</td><td><span>23 May 1954</span></td></tr></tbody></table></div>"},"extension":[{"url":"http://hl7.org/fhir/us/core/StructureDefinition/us-core-race","extension":[{"url":"ombCategory","valueCoding":{"system":"urn:oid:2.16.840.1.113883.6.238","code":"1002-5","display":"American Indian or Alaska Native","userSelected":true}},{"url":"text","valueString":"American Indian or Alaska Native"}]},{"url":"http://hl7.org/fhir/us/core/StructureDefinition/us-core-ethnicity","extension":[{"url":"ombCategory","valueCoding":{"system":"urn:oid:2.16.840.1.113883.6.238","code":"2135-2","display":"Hispanic or Latino","userSelected":true}},{"url":"text","valueString":"Hispanic or Latino"}]}],"identifier":[{"type":{"coding":[{"system":"http://terminology.hl7.org/CodeSystem/v2-0203","code":"MR"}]},"system":"https://bonnie-fhir.healthit.gov/","value":"633c9d040968f8012250fc9f"}],"active":true,"name":[{"use":"usual","family":"DENEXCEPPass","given":["MedRsnStartTmEQEncDisch"]}],"gender":"female","birthDate":"1954-05-23"},"request":{"method":"PUT","url":"Patient/738b6035-5d45-42c6-a519-7ae0787902c2"}},{"fullUrl":"https://madie.cms.gov/Encounter/5c953f97b848462de0ae40f5","resource":{"resourceType":"Encounter","id":"5c953f97b848462de0ae40f5","meta":{"profile":["http://hl7.org/fhir/us/qicore/StructureDefinition/qicore-encounter"]},"status":"finished","class":{"system":"http://terminology.hl7.org/CodeSystem/v3-ActCode","code":"IMP","display":"inpatient encounter"},"type":[{"coding":[{"system":"http://snomed.info/sct","code":"32485007"}]}],"subject":{"reference":"Patient/738b6035-5d45-42c6-a519-7ae0787902c2"},"period":{"start":"2025-11-20T07:16:00.000Z","end":"2025-11-24T08:15:00.000Z"},"length":{"value":4.0,"unit":"days"},"diagnosis":[{"condition":{"reference":"Condition/ischemic-stroke-1953"},"rank":1}]},"request":{"method":"PUT","url":"Encounter/5c953f97b848462de0ae40f5"}},{"fullUrl":"https://madie.cms.gov/MedicationRequest/5c953f97b848462de0ae40f7","resource":{"resourceType":"MedicationRequest","id":"5c953f97b848462de0ae40f7","meta":{"profile":["http://hl7.org/fhir/us/qicore/StructureDefinition/qicore-mednotrequested"]},"status":"completed","intent":"order","category":[{"coding":[{"system":"http://terminology.hl7.org/CodeSystem/medicationrequest-category","code":"community"}]}],"doNotPerform":true,"medicationCodeableConcept":{"coding":[{"system":"http://www.nlm.nih.gov/research/umls/rxnorm","code":"1037045"}]},"subject":{"reference":"Patient/738b6035-5d45-42c6-a519-7ae0787902c2"},"authoredOn":"2025-11-24T08:15:00.000+00:00","requester":{"reference":"Practitioner/example"},"reasonCode":[{"coding":[{"system":"http://snomed.info/sct","code":"183932001"}]}]},"request":{"method":"PUT","url":"MedicationRequest/5c953f97b848462de0ae40f7"}},{"fullUrl":"https://madie.cms.gov/Coverage/5f2c53ce1c76ba5c9960577d","resource":{"resourceType":"Coverage","id":"5f2c53ce1c76ba5c9960577d","status":"active","beneficiary":{"reference":"Patient/738b6035-5d45-42c6-a519-7ae0787902c2"},"period":{"start":"1954-05-23T08:00:00.000Z"},"payor":[{"reference":"Organization/Org-123456"}]},"request":{"method":"PUT","url":"Coverage/5f2c53ce1c76ba5c9960577d"}},{"fullUrl":"https://madie.cms.gov/Procedure/5c953f97b848462de0ae40f8","resource":{"resourceType":"Procedure","id":"5c953f97b848462de0ae40f8","meta":{"profile":["http://hl7.org/fhir/us/qicore/StructureDefinition/qicore-procedure"]},"extension":[{"url":"http://hl7.org/fhir/us/qicore/StructureDefinition/qicore-recorded","valueDateTime":"2013-04-05T09:35:00-04:00"}],"status":"completed","code":{"coding":[{"system":"http://www.cms.gov/Medicare/Coding/ICD10","code":"02560ZZ"},{"system":"http://snomed.info/sct","code":"175095005"}]},"subject":{"reference":"Patient/738b6035-5d45-42c6-a519-7ae0787902c2"},"performedPeriod":{"start":"2025-11-20T07:15:00.000Z","end":"2025-11-20T07:16:00.000Z"}},"request":{"method":"PUT","url":"Procedure/5c953f97b848462de0ae40f8"}},{"fullUrl":"https://madie.cms.gov/Condition/ischemic-stroke-1953","resource":{"resourceType":"Condition","id":"ischemic-stroke-1953","meta":{"profile":["http://hl7.org/fhir/us/qicore/StructureDefinition/qicore-condition"]},"clinicalStatus":{"coding":[{"system":"http://terminology.hl7.org/CodeSystem/condition-clinical","code":"active"}]},"verificationStatus":{"coding":[{"system":"http://terminology.hl7.org/CodeSystem/condition-ver-status","code":"confirmed"}]},"category":[{"coding":[{"system":"http://terminology.hl7.org/CodeSystem/condition-category","code":"encounter-diagnosis","display":"Encounter Diagnosis"}]}],"code":{"coding":[{"system":"http://snomed.info/sct","version":"2021-09","code":"111297002","display":"Nonparalytic stroke (disorder)","userSelected":true}]},"subject":{"reference":"Patient/738b6035-5d45-42c6-a519-7ae0787902c2"},"recordedDate":"2025-10-13T08:00:00.000+00:00"},"request":{"method":"PUT","url":"Condition/ischemic-stroke-1953"}},{"fullUrl":"https://madie.cms.gov/Organization/123456","resource":{"resourceType":"Organization","id":"Org-123456","meta":{"profile":["http://hl7.org/fhir/us/qicore/StructureDefinition/qicore-organization"]},"identifier":[{"use":"temp","system":"urn:oid:2.16.840.1.113883.4.4","value":"21-3259825"}],"active":true,"type":[{"coding":[{"system":"http://terminology.hl7.org/CodeSystem/organization-type","code":"pay","display":"Payer"}]}],"name":"Blue Cross Blue Shield of Texas","telecom":[{"system":"phone","value":"(+1) 972-766-6900"}],"address":[{"use":"billing","type":"postal","line":["P.O. Box 660044"],"city":"Dallas","state":"TX","postalCode":"75266-0044","country":"USA"}]},"request":{"method":"PUT","url":"Organization/Org-123456"}},{"fullUrl":"https://madie.cms.gov/MeasureReport/cc7e899d-6471-402d-8ab8-26eba10f33e0","resource":{"resourceType":"MeasureReport","id":"cc7e899d-6471-402d-8ab8-26eba10f33e0","meta":{"profile":["http://hl7.org/fhir/us/cqfmeasures/StructureDefinition/test-case-cqfm"]},"contained":[{"resourceType":"Parameters","id":"a0756a0a-b902-4df4-a92c-cdbecf409b5f-parameters","parameter":[{"name":"subject","valueString":"738b6035-5d45-42c6-a519-7ae0787902c2"}]}],"extension":[{"url":"http://hl7.org/fhir/us/cqfmeasures/StructureDefinition/cqfm-inputParameters","valueReference":{"reference":"#a0756a0a-b902-4df4-a92c-cdbecf409b5f-parameters"}},{"url":"http://hl7.org/fhir/us/cqfmeasures/StructureDefinition/cqfm-testCaseDescription","valueMarkdown":"Patient did not receive anticoagulant on dc due to medical reason, but start date is eq end of OccurA\n"}],"modifierExtension":[{"url":"http://hl7.org/fhir/us/cqfmeasures/StructureDefinition/cqfm-isTestCase","valueBoolean":true}],"status":"complete","type":"individual","measure":"https://madie.cms.gov/Measure/AnticoagulationTherapyforAtrialFibrillationFlutterFHIR","period":{"start":"2025-01-01","end":"2025-12-31"},"group":[{"population":[{"code":{"coding":[{"system":"http://terminology.hl7.org/CodeSystem/measure-population","code":"initial-population","display":"Initial Population"}]},"count":1},{"code":{"coding":[{"system":"http://terminology.hl7.org/CodeSystem/measure-population","code":"denominator","display":"Denominator"}]},"count":1},{"code":{"coding":[{"system":"http://terminology.hl7.org/CodeSystem/measure-population","code":"denominator-exclusion","display":"Denominator Exclusion"}]},"count":0},{"code":{"coding":[{"system":"http://terminology.hl7.org/CodeSystem/measure-population","code":"numerator","display":"Numerator"}]},"count":0},{"code":{"coding":[{"system":"http://terminology.hl7.org/CodeSystem/measure-population","code":"denominator-exception","display":"Denominator Exception"}]},"count":1}]}],"evaluatedResource":[{"reference":"Patient/738b6035-5d45-42c6-a519-7ae0787902c2"},{"reference":"Encounter/5c953f97b848462de0ae40f5"},{"reference":"MedicationRequest/5c953f97b848462de0ae40f7"},{"reference":"Coverage/5f2c53ce1c76ba5c9960577d"},{"reference":"Procedure/5c953f97b848462de0ae40f8"},{"reference":"Condition/ischemic-stroke-1953"},{"reference":"Organization/Org-123456"}]},"request":{"method":"PUT","url":"MeasureReport/cc7e899d-6471-402d-8ab8-26eba10f33e0"}}]}