{"resourceType":"Bundle","id":"tests-a2365453-d868-4111-b1dc-aad2e81d55fd-bundle","type":"transaction","entry":[{"fullUrl":"https://madie.cms.gov/Patient/a2365453-d868-4111-b1dc-aad2e81d55fd","resource":{"resourceType":"Patient","id":"a2365453-d868-4111-b1dc-aad2e81d55fd","meta":{"profile":["http://hl7.org/fhir/us/qicore/StructureDefinition/qicore-patient"]},"text":{"status":"generated","div":"<div xmlns=\"http://www.w3.org/1999/xhtml\"><div class=\"hapiHeaderText\">CMOdurED_ED&lt;1hrObs&gt;1hrBFEnc <b>DENEXFAIL </b></div><table class=\"hapiPropertyTable\"><tbody><tr><td>Identifier</td><td>16a8bb5fe1507565fee1a4f891d3aeaa0d43dfed75c5408a6c17ebb5066d29ae</td></tr><tr><td>Date of birth</td><td><span>18 September 1985</span></td></tr></tbody></table></div>"},"extension":[{"url":"http://hl7.org/fhir/us/core/StructureDefinition/us-core-race","extension":[{"url":"ombCategory","valueCoding":{"system":"urn:oid:2.16.840.1.113883.6.238","code":"1002-5","display":"American Indian or Alaska Native","userSelected":true}},{"url":"text","valueString":"American Indian or Alaska Native"}]},{"url":"http://hl7.org/fhir/us/core/StructureDefinition/us-core-ethnicity","extension":[{"url":"ombCategory","valueCoding":{"system":"urn:oid:2.16.840.1.113883.6.238","code":"2135-2","display":"Hispanic or Latino","userSelected":true}},{"url":"text","valueString":"Hispanic or Latino"}]}],"identifier":[{"type":{"coding":[{"system":"http://terminology.hl7.org/CodeSystem/v2-0203","code":"MR"}]},"system":"https://bonnie-fhir.healthit.gov/","value":"633c9d040968f8012250fca9"}],"active":true,"name":[{"use":"usual","family":"DENEXFail","given":["CMOdurED_ED<1hrObs>1hrBFEnc"]}],"gender":"female","birthDate":"1985-09-18"},"request":{"method":"PUT","url":"Patient/a2365453-d868-4111-b1dc-aad2e81d55fd"}},{"fullUrl":"https://madie.cms.gov/Condition/5c953f97b848462de0ae416d","resource":{"resourceType":"Condition","id":"5c953f97b848462de0ae416d","meta":{"profile":["http://hl7.org/fhir/us/qicore/StructureDefinition/qicore-condition"]},"clinicalStatus":{"coding":[{"system":"http://terminology.hl7.org/CodeSystem/condition-clinical","code":"inactive"}]},"verificationStatus":{"coding":[{"system":"http://terminology.hl7.org/CodeSystem/condition-ver-status","code":"confirmed"}]},"category":[{"coding":[{"system":"http://terminology.hl7.org/CodeSystem/condition-category","code":"encounter-diagnosis","display":"Encounter Diagnosis"}]}],"code":{"coding":[{"system":"http://hl7.org/fhir/sid/icd-9-cm","code":"427.31"},{"system":"http://hl7.org/fhir/sid/icd-10-cm","code":"I48.0"},{"system":"http://snomed.info/sct","code":"5370000"}]},"subject":{"reference":"Patient/a2365453-d868-4111-b1dc-aad2e81d55fd"},"onsetDateTime":"2025-10-01T09:01:00.000Z","abatementDateTime":"2025-10-12T00:15:00.000Z"},"request":{"method":"PUT","url":"Condition/5c953f97b848462de0ae416d"}},{"fullUrl":"https://madie.cms.gov/Encounter/5c953f97b848462de0ae416e","resource":{"resourceType":"Encounter","id":"5c953f97b848462de0ae416e","meta":{"profile":["http://hl7.org/fhir/us/qicore/StructureDefinition/qicore-encounter"]},"status":"finished","class":{"system":"http://terminology.hl7.org/CodeSystem/v3-ActCode","code":"EMER","display":"emergency"},"type":[{"coding":[{"system":"http://snomed.info/sct","code":"4525004"}]}],"subject":{"reference":"Patient/a2365453-d868-4111-b1dc-aad2e81d55fd"},"period":{"start":"2025-10-01T09:01:00.000Z","end":"2025-10-01T12:15:00.000Z"},"length":{"value":0.0,"unit":"days"}},"request":{"method":"PUT","url":"Encounter/5c953f97b848462de0ae416e"}},{"fullUrl":"https://madie.cms.gov/Encounter/5c953f97b848462de0ae416f","resource":{"resourceType":"Encounter","id":"5c953f97b848462de0ae416f","meta":{"profile":["http://hl7.org/fhir/us/qicore/StructureDefinition/qicore-encounter"]},"status":"finished","class":{"system":"http://terminology.hl7.org/CodeSystem/v3-ActCode","code":"OBSENC","display":"observation encounter"},"type":[{"coding":[{"system":"http://snomed.info/sct","code":"448851000124103"}]}],"subject":{"reference":"Patient/a2365453-d868-4111-b1dc-aad2e81d55fd"},"period":{"start":"2025-10-01T12:16:00.000Z","end":"2025-10-01T12:30:00.000Z"},"length":{"value":0.0,"unit":"days"}},"request":{"method":"PUT","url":"Encounter/5c953f97b848462de0ae416f"}},{"fullUrl":"https://madie.cms.gov/Encounter/5c953f97b848462de0ae4170","resource":{"resourceType":"Encounter","id":"5c953f97b848462de0ae4170","meta":{"profile":["http://hl7.org/fhir/us/qicore/StructureDefinition/qicore-encounter"]},"status":"finished","class":{"system":"http://terminology.hl7.org/CodeSystem/v3-ActCode","code":"IMP","display":"inpatient encounter"},"type":[{"coding":[{"system":"http://snomed.info/sct","code":"32485007"}]}],"subject":{"reference":"Patient/a2365453-d868-4111-b1dc-aad2e81d55fd"},"period":{"start":"2025-10-01T13:31:00.000Z","end":"2025-10-12T00:15:00.000Z"},"length":{"value":11.0,"unit":"days"},"diagnosis":[{"condition":{"reference":"Condition/ischemic-stroke-1955"},"use":{"coding":[{"system":"http://hl7.org/fhir/sid/icd-10-cm","version":"2022","code":"I63.019","display":"Cerebral infarction due to thrombosis of unspecified vertebral artery","userSelected":true}]},"rank":1}]},"request":{"method":"PUT","url":"Encounter/5c953f97b848462de0ae4170"}},{"fullUrl":"https://madie.cms.gov/ServiceRequest/5c953f97b848462de0ae4172","resource":{"resourceType":"ServiceRequest","id":"5c953f97b848462de0ae4172","meta":{"profile":["http://hl7.org/fhir/us/qicore/StructureDefinition/qicore-servicerequest"]},"status":"active","intent":"order","code":{"coding":[{"system":"http://snomed.info/sct","code":"133918004"}]},"subject":{"reference":"Patient/a2365453-d868-4111-b1dc-aad2e81d55fd"},"authoredOn":"2025-10-01T09:15:00.000+00:00"},"request":{"method":"PUT","url":"ServiceRequest/5c953f97b848462de0ae4172"}},{"fullUrl":"https://madie.cms.gov/Coverage/5f2c53d01c76ba5c9960579b","resource":{"resourceType":"Coverage","id":"5f2c53d01c76ba5c9960579b","status":"active","beneficiary":{"reference":"Patient/a2365453-d868-4111-b1dc-aad2e81d55fd"},"period":{"start":"1985-09-18T08:00:00.000Z"},"payor":[{"reference":"Organization/Org-123456"}]},"request":{"method":"PUT","url":"Coverage/5f2c53d01c76ba5c9960579b"}},{"fullUrl":"https://madie.cms.gov/Condition/ischemic-stroke-1955","resource":{"resourceType":"Condition","id":"ischemic-stroke-1955","meta":{"profile":["http://hl7.org/fhir/us/qicore/StructureDefinition/qicore-condition"]},"clinicalStatus":{"coding":[{"system":"http://terminology.hl7.org/CodeSystem/condition-clinical","code":"active"}]},"verificationStatus":{"coding":[{"system":"http://terminology.hl7.org/CodeSystem/condition-ver-status","code":"confirmed"}]},"category":[{"coding":[{"system":"http://terminology.hl7.org/CodeSystem/condition-category","code":"encounter-diagnosis","display":"Encounter Diagnosis"}]}],"code":{"coding":[{"system":"http://snomed.info/sct","version":"2021-09","code":"111297002","display":"Nonparalytic stroke (disorder)","userSelected":true}]},"subject":{"reference":"Patient/a2365453-d868-4111-b1dc-aad2e81d55fd"},"recordedDate":"2025-10-13T08:00:00.000+00:00"},"request":{"method":"PUT","url":"Condition/ischemic-stroke-1955"}},{"fullUrl":"https://madie.cms.gov/Organization/123456","resource":{"resourceType":"Organization","id":"Org-123456","meta":{"profile":["http://hl7.org/fhir/us/qicore/StructureDefinition/qicore-organization"]},"identifier":[{"use":"temp","system":"urn:oid:2.16.840.1.113883.4.4","value":"21-3259825"}],"active":true,"type":[{"coding":[{"system":"http://terminology.hl7.org/CodeSystem/organization-type","code":"pay","display":"Payer"}]}],"name":"Blue Cross Blue Shield of Texas","telecom":[{"system":"phone","value":"(+1) 972-766-6900"}],"address":[{"use":"billing","type":"postal","line":["P.O. Box 660044"],"city":"Dallas","state":"TX","postalCode":"75266-0044","country":"USA"}]},"request":{"method":"PUT","url":"Organization/Org-123456"}},{"fullUrl":"https://madie.cms.gov/MeasureReport/f6c1d104-bf0b-499a-be5a-a11818efef64","resource":{"resourceType":"MeasureReport","id":"f6c1d104-bf0b-499a-be5a-a11818efef64","meta":{"profile":["http://hl7.org/fhir/us/cqfmeasures/StructureDefinition/test-case-cqfm"]},"contained":[{"resourceType":"Parameters","id":"ea19313a-113e-4b3e-8461-0d27cd3f466a-parameters","parameter":[{"name":"subject","valueString":"a2365453-d868-4111-b1dc-aad2e81d55fd"}]}],"extension":[{"url":"http://hl7.org/fhir/us/cqfmeasures/StructureDefinition/cqfm-inputParameters","valueReference":{"reference":"#ea19313a-113e-4b3e-8461-0d27cd3f466a-parameters"}},{"url":"http://hl7.org/fhir/us/cqfmeasures/StructureDefinition/cqfm-testCaseDescription","valueMarkdown":"Patient receives CMO during Observation. ED ends 1 min before Obs start and Obs ends 61 min before inpatient encounter start. Testing HospitalizationWithObservation function."}],"modifierExtension":[{"url":"http://hl7.org/fhir/us/cqfmeasures/StructureDefinition/cqfm-isTestCase","valueBoolean":true}],"status":"complete","type":"individual","measure":"https://madie.cms.gov/Measure/AnticoagulationTherapyforAtrialFibrillationFlutterFHIR","period":{"start":"2025-01-01","end":"2025-12-31"},"group":[{"population":[{"code":{"coding":[{"system":"http://terminology.hl7.org/CodeSystem/measure-population","code":"initial-population","display":"Initial Population"}]},"count":1},{"code":{"coding":[{"system":"http://terminology.hl7.org/CodeSystem/measure-population","code":"denominator","display":"Denominator"}]},"count":1},{"code":{"coding":[{"system":"http://terminology.hl7.org/CodeSystem/measure-population","code":"denominator-exclusion","display":"Denominator Exclusion"}]},"count":0},{"code":{"coding":[{"system":"http://terminology.hl7.org/CodeSystem/measure-population","code":"numerator","display":"Numerator"}]},"count":0},{"code":{"coding":[{"system":"http://terminology.hl7.org/CodeSystem/measure-population","code":"denominator-exception","display":"Denominator Exception"}]},"count":0}]}],"evaluatedResource":[{"reference":"Patient/a2365453-d868-4111-b1dc-aad2e81d55fd"},{"reference":"Condition/5c953f97b848462de0ae416d"},{"reference":"Encounter/5c953f97b848462de0ae416e"},{"reference":"Encounter/5c953f97b848462de0ae416f"},{"reference":"Encounter/5c953f97b848462de0ae4170"},{"reference":"ServiceRequest/5c953f97b848462de0ae4172"},{"reference":"Coverage/5f2c53d01c76ba5c9960579b"},{"reference":"Condition/ischemic-stroke-1955"},{"reference":"Organization/Org-123456"}]},"request":{"method":"PUT","url":"MeasureReport/f6c1d104-bf0b-499a-be5a-a11818efef64"}}]}