{"resourceType":"Bundle","id":"tests-52951a0c-ccd4-4e47-9133-16ff3984ef12-bundle","type":"transaction","entry":[{"fullUrl":"https://madie.cms.gov/Patient/52951a0c-ccd4-4e47-9133-16ff3984ef12","resource":{"resourceType":"Patient","id":"52951a0c-ccd4-4e47-9133-16ff3984ef12","meta":{"profile":["http://hl7.org/fhir/us/qicore/StructureDefinition/qicore-patient"]},"text":{"status":"generated","div":"<div xmlns=\"http://www.w3.org/1999/xhtml\"><div class=\"hapiHeaderText\">PatientExpired <b>DENEXPASS </b></div><table class=\"hapiPropertyTable\"><tbody><tr><td>Identifier</td><td>c3d01f7f78785bb49d9eef86bf245a1a</td></tr><tr><td>Date of birth</td><td><span>31 July 1969</span></td></tr></tbody></table></div>"},"extension":[{"url":"http://hl7.org/fhir/us/core/StructureDefinition/us-core-race","extension":[{"url":"ombCategory","valueCoding":{"system":"urn:oid:2.16.840.1.113883.6.238","code":"1002-5","display":"American Indian or Alaska Native","userSelected":true}},{"url":"text","valueString":"American Indian or Alaska Native"}]},{"url":"http://hl7.org/fhir/us/core/StructureDefinition/us-core-ethnicity","extension":[{"url":"ombCategory","valueCoding":{"system":"urn:oid:2.16.840.1.113883.6.238","code":"2135-2","display":"Hispanic or Latino","userSelected":true}},{"url":"text","valueString":"Hispanic or Latino"}]}],"identifier":[{"type":{"coding":[{"system":"http://terminology.hl7.org/CodeSystem/v2-0203","code":"MR"}]},"system":"https://bonnie-fhir.healthit.gov/","value":"633c9d020968f8012250fc68"}],"active":true,"name":[{"use":"usual","family":"DENEXPass","given":["PatientExpired"]}],"gender":"male","birthDate":"1969-07-31"},"request":{"method":"PUT","url":"Patient/52951a0c-ccd4-4e47-9133-16ff3984ef12"}},{"fullUrl":"https://madie.cms.gov/Encounter/5c953f96b848462de0ae4075","resource":{"resourceType":"Encounter","id":"5c953f96b848462de0ae4075","meta":{"profile":["http://hl7.org/fhir/us/qicore/StructureDefinition/qicore-encounter"]},"status":"finished","class":{"system":"http://terminology.hl7.org/CodeSystem/v3-ActCode","code":"IMP","display":"inpatient encounter"},"type":[{"coding":[{"system":"http://snomed.info/sct","code":"32485007"}]}],"subject":{"reference":"Patient/52951a0c-ccd4-4e47-9133-16ff3984ef12"},"period":{"start":"2025-11-20T08:00:00.000Z","end":"2025-11-24T08:15:00.000Z"},"length":{"value":4.0,"unit":"days"},"diagnosis":[{"condition":{"reference":"Condition/ischemic-stroke-1972"},"rank":1}],"hospitalization":{"dischargeDisposition":{"coding":[{"system":"http://snomed.info/sct","code":"371828006","display":"Patient Expired"}]}}},"request":{"method":"PUT","url":"Encounter/5c953f96b848462de0ae4075"}},{"fullUrl":"https://madie.cms.gov/Coverage/5f2c53c81c76ba5c996056d8","resource":{"resourceType":"Coverage","id":"5f2c53c81c76ba5c996056d8","status":"active","beneficiary":{"reference":"Patient/52951a0c-ccd4-4e47-9133-16ff3984ef12"},"period":{"start":"1969-07-31T08:00:00.000Z"},"payor":[{"reference":"Organization/Org-123456"}]},"request":{"method":"PUT","url":"Coverage/5f2c53c81c76ba5c996056d8"}},{"fullUrl":"https://madie.cms.gov/Procedure/5c953f96b848462de0ae4077","resource":{"resourceType":"Procedure","id":"5c953f96b848462de0ae4077","meta":{"profile":["http://hl7.org/fhir/us/qicore/StructureDefinition/qicore-procedure"]},"extension":[{"url":"http://hl7.org/fhir/us/qicore/StructureDefinition/qicore-recorded","valueDateTime":"2025-11-19T09:35:00-04:00"}],"status":"completed","code":{"coding":[{"system":"http://www.cms.gov/Medicare/Coding/ICD10","code":"02560ZZ"},{"system":"http://snomed.info/sct","code":"175095005"}]},"subject":{"reference":"Patient/52951a0c-ccd4-4e47-9133-16ff3984ef12"},"performedPeriod":{"start":"2025-11-19T08:00:00.000Z","end":"2025-11-20T08:15:00.000Z"}},"request":{"method":"PUT","url":"Procedure/5c953f96b848462de0ae4077"}},{"fullUrl":"https://madie.cms.gov/Condition/ischemic-stroke-1972","resource":{"resourceType":"Condition","id":"ischemic-stroke-1972","meta":{"profile":["http://hl7.org/fhir/us/qicore/StructureDefinition/qicore-condition"]},"clinicalStatus":{"coding":[{"system":"http://terminology.hl7.org/CodeSystem/condition-clinical","code":"active"}]},"verificationStatus":{"coding":[{"system":"http://terminology.hl7.org/CodeSystem/condition-ver-status","code":"confirmed"}]},"category":[{"coding":[{"system":"http://terminology.hl7.org/CodeSystem/condition-category","code":"encounter-diagnosis","display":"Encounter Diagnosis"}]}],"code":{"coding":[{"system":"http://snomed.info/sct","version":"2021-09","code":"111297002","display":"Nonparalytic stroke (disorder)","userSelected":true}]},"subject":{"reference":"Patient/52951a0c-ccd4-4e47-9133-16ff3984ef12"},"recordedDate":"2025-10-13T08:00:00.000+00:00"},"request":{"method":"PUT","url":"Condition/ischemic-stroke-1972"}},{"fullUrl":"https://madie.cms.gov/Organization/123456","resource":{"resourceType":"Organization","id":"Org-123456","meta":{"profile":["http://hl7.org/fhir/us/qicore/StructureDefinition/qicore-organization"]},"identifier":[{"use":"temp","system":"urn:oid:2.16.840.1.113883.4.4","value":"21-3259825"}],"active":true,"type":[{"coding":[{"system":"http://terminology.hl7.org/CodeSystem/organization-type","code":"pay","display":"Payer"}]}],"name":"Blue Cross Blue Shield of Texas","telecom":[{"system":"phone","value":"(+1) 972-766-6900"}],"address":[{"use":"billing","type":"postal","line":["P.O. Box 660044"],"city":"Dallas","state":"TX","postalCode":"75266-0044","country":"USA"}]},"request":{"method":"PUT","url":"Organization/Org-123456"}},{"fullUrl":"https://madie.cms.gov/Practitioner/practitioner-123456","resource":{"resourceType":"Practitioner","id":"practitioner-123456","identifier":[{"system":"http://hl7.org/fhir/sid/us-npi","value":"123456"}],"name":[{"family":"Evil","prefix":["Dr"]}]},"request":{"method":"PUT","url":"Practitioner/practitioner-123456"}},{"fullUrl":"https://madie.cms.gov/MeasureReport/ca5af831-517b-4818-a8c4-386aaf655978","resource":{"resourceType":"MeasureReport","id":"ca5af831-517b-4818-a8c4-386aaf655978","meta":{"profile":["http://hl7.org/fhir/us/cqfmeasures/StructureDefinition/test-case-cqfm"]},"contained":[{"resourceType":"Parameters","id":"d92e3213-af4b-44de-830e-d355d60fd37b-parameters","parameter":[{"name":"subject","valueString":"52951a0c-ccd4-4e47-9133-16ff3984ef12"}]}],"extension":[{"url":"http://hl7.org/fhir/us/cqfmeasures/StructureDefinition/cqfm-inputParameters","valueReference":{"reference":"#d92e3213-af4b-44de-830e-d355d60fd37b-parameters"}},{"url":"http://hl7.org/fhir/us/cqfmeasures/StructureDefinition/cqfm-testCaseDescription","valueMarkdown":"Patient expired.\n"}],"modifierExtension":[{"url":"http://hl7.org/fhir/us/cqfmeasures/StructureDefinition/cqfm-isTestCase","valueBoolean":true}],"status":"complete","type":"individual","measure":"https://madie.cms.gov/Measure/AnticoagulationTherapyforAtrialFibrillationFlutterFHIR","period":{"start":"2025-01-01","end":"2025-12-31"},"group":[{"population":[{"code":{"coding":[{"system":"http://terminology.hl7.org/CodeSystem/measure-population","code":"initial-population","display":"Initial Population"}]},"count":1},{"code":{"coding":[{"system":"http://terminology.hl7.org/CodeSystem/measure-population","code":"denominator","display":"Denominator"}]},"count":1},{"code":{"coding":[{"system":"http://terminology.hl7.org/CodeSystem/measure-population","code":"denominator-exclusion","display":"Denominator Exclusion"}]},"count":1},{"code":{"coding":[{"system":"http://terminology.hl7.org/CodeSystem/measure-population","code":"numerator","display":"Numerator"}]},"count":0},{"code":{"coding":[{"system":"http://terminology.hl7.org/CodeSystem/measure-population","code":"denominator-exception","display":"Denominator Exception"}]},"count":0}]}],"evaluatedResource":[{"reference":"Patient/52951a0c-ccd4-4e47-9133-16ff3984ef12"},{"reference":"Encounter/5c953f96b848462de0ae4075"},{"reference":"Coverage/5f2c53c81c76ba5c996056d8"},{"reference":"Procedure/5c953f96b848462de0ae4077"},{"reference":"Condition/ischemic-stroke-1972"},{"reference":"Organization/Org-123456"},{"reference":"Practitioner/practitioner-123456"}]},"request":{"method":"PUT","url":"MeasureReport/ca5af831-517b-4818-a8c4-386aaf655978"}}]}