{"resourceType":"Bundle","id":"tests-fd13e14c-cd97-4e81-9a69-e638b0a1fa58-bundle","type":"transaction","entry":[{"fullUrl":"https://madie.cms.gov/Patient/fd13e14c-cd97-4e81-9a69-e638b0a1fa58","resource":{"resourceType":"Patient","id":"fd13e14c-cd97-4e81-9a69-e638b0a1fa58","meta":{"profile":["http://hl7.org/fhir/us/qicore/StructureDefinition/qicore-patient"]},"text":{"status":"generated","div":"<div xmlns=\"http://www.w3.org/1999/xhtml\"><div class=\"hapiHeaderText\">MultipleIPEncounter <b>IPPFAIL </b></div><table class=\"hapiPropertyTable\"><tbody><tr><td>Identifier</td><td>946910ea4598e45468b2565ed3cdbc9e</td></tr><tr><td>Date of birth</td><td><span>01 December 1960</span></td></tr></tbody></table></div>"},"extension":[{"url":"http://hl7.org/fhir/us/core/StructureDefinition/us-core-race","extension":[{"url":"ombCategory","valueCoding":{"system":"urn:oid:2.16.840.1.113883.6.238","code":"1002-5","display":"American Indian or Alaska Native","userSelected":true}},{"url":"text","valueString":"American Indian or Alaska Native"}]},{"url":"http://hl7.org/fhir/us/core/StructureDefinition/us-core-ethnicity","extension":[{"url":"ombCategory","valueCoding":{"system":"urn:oid:2.16.840.1.113883.6.238","code":"2135-2","display":"Hispanic or Latino","userSelected":true}},{"url":"text","valueString":"Hispanic or Latino"}]}],"identifier":[{"type":{"coding":[{"system":"http://terminology.hl7.org/CodeSystem/v2-0203","code":"MR"}]},"system":"https://bonnie-fhir.healthit.gov/","value":"633c9d040968f8012250fcad"}],"active":true,"name":[{"use":"usual","family":"IPPFail","given":["MultipleIPEncounter"]}],"gender":"male","birthDate":"1960-12-01"},"request":{"method":"PUT","url":"Patient/fd13e14c-cd97-4e81-9a69-e638b0a1fa58"}},{"fullUrl":"https://madie.cms.gov/Encounter/5c953f96b848462de0ae407e","resource":{"resourceType":"Encounter","id":"9b74e401-a8d5-4423-9b0b-ad2472052457","meta":{"profile":["http://hl7.org/fhir/us/qicore/StructureDefinition/qicore-encounter"]},"status":"finished","class":{"system":"http://terminology.hl7.org/CodeSystem/v3-ActCode","code":"EMER","display":"emergency"},"type":[{"coding":[{"system":"http://snomed.info/sct","code":"4525004"}]}],"subject":{"reference":"Patient/fd13e14c-cd97-4e81-9a69-e638b0a1fa58"},"period":{"start":"2025-02-08T08:00:00.000Z","end":"2025-02-08T08:15:00.000Z"},"length":{"value":0.0,"unit":"days"},"diagnosis":[{"condition":{"reference":"Condition/ischemic-stroke-198e"},"rank":1}]},"request":{"method":"PUT","url":"Encounter/9b74e401-a8d5-4423-9b0b-ad2472052457"}},{"fullUrl":"https://madie.cms.gov/Encounter/5e309068ef08fe00001552f4","resource":{"resourceType":"Encounter","id":"ff696008-31b1-478e-a25e-43bed51942ef","meta":{"profile":["http://hl7.org/fhir/us/qicore/StructureDefinition/qicore-encounter"]},"status":"finished","class":{"system":"http://terminology.hl7.org/CodeSystem/v3-ActCode","code":"IMP","display":"inpatient encounter"},"type":[{"coding":[{"system":"http://snomed.info/sct","code":"183452005"}]}],"subject":{"reference":"Patient/fd13e14c-cd97-4e81-9a69-e638b0a1fa58"},"period":{"start":"2025-02-08T08:20:00.000Z","end":"2025-02-10T08:15:00.000Z"},"diagnosis":[{"condition":{"reference":"Condition/atrial-fibrillation-flutter-198d"},"rank":1}]},"request":{"method":"PUT","url":"Encounter/ff696008-31b1-478e-a25e-43bed51942ef"}},{"fullUrl":"https://madie.cms.gov/Encounter/5e3090a1ef08fe000015531f","resource":{"resourceType":"Encounter","id":"b04a4dec-5129-418b-8300-3c653cd865aa","meta":{"profile":["http://hl7.org/fhir/us/qicore/StructureDefinition/qicore-encounter"]},"status":"finished","class":{"system":"http://terminology.hl7.org/CodeSystem/v3-ActCode","code":"IMP","display":"inpatient encounter"},"type":[{"coding":[{"system":"http://snomed.info/sct","code":"183452005"}]}],"subject":{"reference":"Patient/fd13e14c-cd97-4e81-9a69-e638b0a1fa58"},"period":{"start":"2025-02-07T08:00:00.000Z","end":"2025-02-11T08:15:00.000Z"}},"request":{"method":"PUT","url":"Encounter/b04a4dec-5129-418b-8300-3c653cd865aa"}},{"fullUrl":"https://madie.cms.gov/Coverage/5f2c53d01c76ba5c996057a7","resource":{"resourceType":"Coverage","id":"660335f8-4e03-4eda-a7b9-b62e05342092","status":"active","beneficiary":{"reference":"Patient/fd13e14c-cd97-4e81-9a69-e638b0a1fa58"},"period":{"start":"1960-12-01T01:00:00.000Z"},"payor":[{"reference":"Organization/33ead57e-5e04-40e4-95ea-bc3cdbd58917"}]},"request":{"method":"PUT","url":"Coverage/660335f8-4e03-4eda-a7b9-b62e05342092"}},{"fullUrl":"https://madie.cms.gov/Condition/atrial-fibrillation-flutter-198d","resource":{"resourceType":"Condition","id":"e934ea8d-284a-4df5-b8ca-206a6fc5dddb","meta":{"profile":["http://hl7.org/fhir/us/qicore/StructureDefinition/qicore-condition"]},"clinicalStatus":{"coding":[{"system":"http://terminology.hl7.org/CodeSystem/condition-clinical","code":"active"}]},"verificationStatus":{"coding":[{"system":"http://terminology.hl7.org/CodeSystem/condition-ver-status","code":"confirmed"}]},"category":[{"coding":[{"system":"http://terminology.hl7.org/CodeSystem/condition-category","code":"encounter-diagnosis","display":"Encounter Diagnosis"}]}],"code":{"coding":[{"system":"http://snomed.info/sct","version":"2021-09","code":"120041000119109","display":"Atrial fibrillation with rapid ventricular response (disorder)","userSelected":true}]},"subject":{"reference":"Patient/fd13e14c-cd97-4e81-9a69-e638b0a1fa58"},"recordedDate":"2025-10-13T08:00:00.000+00:00"},"request":{"method":"PUT","url":"Condition/e934ea8d-284a-4df5-b8ca-206a6fc5dddb"}},{"fullUrl":"https://madie.cms.gov/Condition/ischemic-stroke-198e","resource":{"resourceType":"Condition","id":"c430b540-0aa9-4175-b8e5-538dd64141b7","meta":{"profile":["http://hl7.org/fhir/us/qicore/StructureDefinition/qicore-condition"]},"clinicalStatus":{"coding":[{"system":"http://terminology.hl7.org/CodeSystem/condition-clinical","code":"active"}]},"verificationStatus":{"coding":[{"system":"http://terminology.hl7.org/CodeSystem/condition-ver-status","code":"confirmed"}]},"category":[{"coding":[{"system":"http://terminology.hl7.org/CodeSystem/condition-category","code":"encounter-diagnosis","display":"Encounter Diagnosis"}]}],"code":{"coding":[{"system":"http://snomed.info/sct","version":"2021-09","code":"111297002","display":"Nonparalytic stroke (disorder)","userSelected":true}]},"subject":{"reference":"Patient/fd13e14c-cd97-4e81-9a69-e638b0a1fa58"},"recordedDate":"2025-10-13T08:00:00.000+00:00"},"request":{"method":"PUT","url":"Condition/c430b540-0aa9-4175-b8e5-538dd64141b7"}},{"fullUrl":"https://madie.cms.gov/Organization/123456","resource":{"resourceType":"Organization","id":"33ead57e-5e04-40e4-95ea-bc3cdbd58917","meta":{"profile":["http://hl7.org/fhir/us/qicore/StructureDefinition/qicore-organization"]},"identifier":[{"use":"temp","system":"urn:oid:2.16.840.1.113883.4.4","value":"21-3259825"}],"active":true,"type":[{"coding":[{"system":"http://terminology.hl7.org/CodeSystem/organization-type","code":"pay","display":"Payer"}]}],"name":"Blue Cross Blue Shield of Texas","telecom":[{"system":"phone","value":"(+1) 972-766-6900"}],"address":[{"use":"billing","type":"postal","line":["P.O. Box 660044"],"city":"Dallas","state":"TX","postalCode":"75266-0044","country":"USA"}]},"request":{"method":"PUT","url":"Organization/33ead57e-5e04-40e4-95ea-bc3cdbd58917"}},{"fullUrl":"https://madie.cms.gov/Practitioner/practitioner-123456","resource":{"resourceType":"Practitioner","id":"d07bddfb-909d-4c48-9972-10a1040ca863","identifier":[{"system":"http://hl7.org/fhir/sid/us-npi","value":"123456"}],"name":[{"family":"Evil","prefix":["Dr"]}]},"request":{"method":"PUT","url":"Practitioner/d07bddfb-909d-4c48-9972-10a1040ca863"}},{"fullUrl":"https://madie.cms.gov/MeasureReport/11005f18-de09-4f59-ab64-6053c984d50f","resource":{"resourceType":"MeasureReport","id":"11005f18-de09-4f59-ab64-6053c984d50f","meta":{"profile":["http://hl7.org/fhir/us/cqfmeasures/StructureDefinition/test-case-cqfm"]},"contained":[{"resourceType":"Parameters","id":"46d0afe6-c26d-4e1c-a178-af623b9fca20-parameters","parameter":[{"name":"subject","valueString":"fd13e14c-cd97-4e81-9a69-e638b0a1fa58"}]}],"extension":[{"url":"http://hl7.org/fhir/us/cqfmeasures/StructureDefinition/cqfm-inputParameters","valueReference":{"reference":"#46d0afe6-c26d-4e1c-a178-af623b9fca20-parameters"}},{"url":"http://hl7.org/fhir/us/cqfmeasures/StructureDefinition/cqfm-testCaseDescription","valueMarkdown":"ED visit with Principal Dx = Ischemic Stroke. No inpatient encounter \n"}],"modifierExtension":[{"url":"http://hl7.org/fhir/us/cqfmeasures/StructureDefinition/cqfm-isTestCase","valueBoolean":true}],"status":"complete","type":"individual","measure":"https://madie.cms.gov/Measure/AnticoagulationTherapyforAtrialFibrillationFlutterFHIR","period":{"start":"2025-01-01","end":"2025-12-31"},"group":[{"population":[{"code":{"coding":[{"system":"http://terminology.hl7.org/CodeSystem/measure-population","code":"initial-population","display":"Initial Population"}]},"count":0},{"code":{"coding":[{"system":"http://terminology.hl7.org/CodeSystem/measure-population","code":"denominator","display":"Denominator"}]},"count":0},{"code":{"coding":[{"system":"http://terminology.hl7.org/CodeSystem/measure-population","code":"denominator-exclusion","display":"Denominator Exclusion"}]},"count":0},{"code":{"coding":[{"system":"http://terminology.hl7.org/CodeSystem/measure-population","code":"numerator","display":"Numerator"}]},"count":0},{"code":{"coding":[{"system":"http://terminology.hl7.org/CodeSystem/measure-population","code":"denominator-exception","display":"Denominator Exception"}]},"count":0}]}]},"request":{"method":"PUT","url":"MeasureReport/11005f18-de09-4f59-ab64-6053c984d50f"}}]}