{"resourceType":"Bundle","id":"tests-0fc5a0c1-02c0-4427-87d8-2e58f4be7b07-bundle","type":"transaction","entry":[{"fullUrl":"https://madie.cms.gov/Patient/0fc5a0c1-02c0-4427-87d8-2e58f4be7b07","resource":{"resourceType":"Patient","id":"0fc5a0c1-02c0-4427-87d8-2e58f4be7b07","meta":{"profile":["http://hl7.org/fhir/us/qicore/StructureDefinition/qicore-patient"]},"text":{"status":"generated","div":"<div xmlns=\"http://www.w3.org/1999/xhtml\"><div class=\"hapiHeaderText\">Age&lt;18 <b>IPPFAIL </b></div><table class=\"hapiPropertyTable\"><tbody><tr><td>Identifier</td><td>ca0f0d86cef05422cfb8f64b99a26e8f</td></tr><tr><td>Date of birth</td><td><span>09 February 1994</span></td></tr></tbody></table></div>"},"extension":[{"url":"http://hl7.org/fhir/us/core/StructureDefinition/us-core-race","extension":[{"url":"ombCategory","valueCoding":{"system":"urn:oid:2.16.840.1.113883.6.238","code":"1002-5","display":"American Indian or Alaska Native","userSelected":true}},{"url":"text","valueString":"American Indian or Alaska Native"}]},{"url":"http://hl7.org/fhir/us/core/StructureDefinition/us-core-ethnicity","extension":[{"url":"ombCategory","valueCoding":{"system":"urn:oid:2.16.840.1.113883.6.238","code":"2135-2","display":"Hispanic or Latino","userSelected":true}},{"url":"text","valueString":"Hispanic or Latino"}]}],"identifier":[{"type":{"coding":[{"system":"http://terminology.hl7.org/CodeSystem/v2-0203","code":"MR"}]},"system":"https://bonnie-fhir.healthit.gov/","value":"633c9d030968f8012250fc70"}],"active":true,"name":[{"use":"usual","family":"IPPFail","given":["Age<18"]}],"gender":"male","birthDate":"2007-02-09"},"request":{"method":"PUT","url":"Patient/0fc5a0c1-02c0-4427-87d8-2e58f4be7b07"}},{"fullUrl":"https://madie.cms.gov/Encounter/5c953f96b848462de0ae4084","resource":{"resourceType":"Encounter","id":"f98fe0d3-d367-40fe-a8a6-ad5f364a064a","meta":{"profile":["http://hl7.org/fhir/us/qicore/StructureDefinition/qicore-encounter"]},"status":"finished","class":{"system":"http://terminology.hl7.org/CodeSystem/v3-ActCode","code":"IMP","display":"inpatient encounter"},"type":[{"coding":[{"system":"http://snomed.info/sct","code":"32485007"}]}],"subject":{"reference":"Patient/0fc5a0c1-02c0-4427-87d8-2e58f4be7b07"},"period":{"start":"2025-02-08T08:00:00.000Z","end":"2025-02-10T08:15:00.000Z"},"length":{"value":2,"unit":"days"},"diagnosis":[{"condition":{"reference":"Condition/ischemic-stroke-1989"},"rank":1}]},"request":{"method":"PUT","url":"Encounter/f98fe0d3-d367-40fe-a8a6-ad5f364a064a"}},{"fullUrl":"https://madie.cms.gov/Coverage/5f2c53c91c76ba5c996056f0","resource":{"resourceType":"Coverage","id":"46f91d91-196c-4c9a-9c54-7797e6a03abd","status":"active","beneficiary":{"reference":"Patient/0fc5a0c1-02c0-4427-87d8-2e58f4be7b07"},"period":{"start":"1994-02-09T08:00:00.000Z"},"payor":[{"reference":"Organization/41c75c00-82d9-4ab2-98f6-cfaf7fc3381d"}]},"request":{"method":"PUT","url":"Coverage/46f91d91-196c-4c9a-9c54-7797e6a03abd"}},{"fullUrl":"https://madie.cms.gov/Condition/ischemic-stroke-1989","resource":{"resourceType":"Condition","id":"d4a85f7f-7b5b-4af3-bc8d-80d5b0c1f980","meta":{"profile":["http://hl7.org/fhir/us/qicore/StructureDefinition/qicore-condition"]},"clinicalStatus":{"coding":[{"system":"http://terminology.hl7.org/CodeSystem/condition-clinical","code":"active"}]},"verificationStatus":{"coding":[{"system":"http://terminology.hl7.org/CodeSystem/condition-ver-status","code":"confirmed"}]},"category":[{"coding":[{"system":"http://terminology.hl7.org/CodeSystem/condition-category","code":"encounter-diagnosis","display":"Encounter Diagnosis"}]}],"code":{"coding":[{"system":"http://snomed.info/sct","version":"2021-09","code":"111297002","display":"Nonparalytic stroke (disorder)","userSelected":true}]},"subject":{"reference":"Patient/0fc5a0c1-02c0-4427-87d8-2e58f4be7b07"},"recordedDate":"2025-10-13T08:00:00.000+00:00"},"request":{"method":"PUT","url":"Condition/d4a85f7f-7b5b-4af3-bc8d-80d5b0c1f980"}},{"fullUrl":"https://madie.cms.gov/Organization/123456","resource":{"resourceType":"Organization","id":"41c75c00-82d9-4ab2-98f6-cfaf7fc3381d","meta":{"profile":["http://hl7.org/fhir/us/qicore/StructureDefinition/qicore-organization"]},"identifier":[{"use":"temp","system":"urn:oid:2.16.840.1.113883.4.4","value":"21-3259825"}],"active":true,"type":[{"coding":[{"system":"http://terminology.hl7.org/CodeSystem/organization-type","code":"pay","display":"Payer"}]}],"name":"Blue Cross Blue Shield of Texas","telecom":[{"system":"phone","value":"(+1) 972-766-6900"}],"address":[{"use":"billing","type":"postal","line":["P.O. Box 660044"],"city":"Dallas","state":"TX","postalCode":"75266-0044","country":"USA"}]},"request":{"method":"PUT","url":"Organization/41c75c00-82d9-4ab2-98f6-cfaf7fc3381d"}},{"fullUrl":"https://madie.cms.gov/Practitioner/practitioner-123456","resource":{"resourceType":"Practitioner","id":"cd2b0519-4827-4cfe-9a7c-7830e0025e86","identifier":[{"system":"http://hl7.org/fhir/sid/us-npi","value":"123456"}],"name":[{"family":"Evil","prefix":["Dr"]}]},"request":{"method":"PUT","url":"Practitioner/cd2b0519-4827-4cfe-9a7c-7830e0025e86"}},{"fullUrl":"https://madie.cms.gov/MeasureReport/8eee7efc-d677-4491-94ec-2ad1bf156af2","resource":{"resourceType":"MeasureReport","id":"8eee7efc-d677-4491-94ec-2ad1bf156af2","meta":{"profile":["http://hl7.org/fhir/us/cqfmeasures/StructureDefinition/test-case-cqfm"]},"contained":[{"resourceType":"Parameters","id":"75f6ba4b-60a6-4009-8013-57311ee9fa76-parameters","parameter":[{"name":"subject","valueString":"0fc5a0c1-02c0-4427-87d8-2e58f4be7b07"}]}],"extension":[{"url":"http://hl7.org/fhir/us/cqfmeasures/StructureDefinition/cqfm-inputParameters","valueReference":{"reference":"#75f6ba4b-60a6-4009-8013-57311ee9fa76-parameters"}},{"url":"http://hl7.org/fhir/us/cqfmeasures/StructureDefinition/cqfm-testCaseDescription","valueMarkdown":"Principal diagnosis = ischemic stroke, patient turns 18 one day after OccurA starts\n"}],"modifierExtension":[{"url":"http://hl7.org/fhir/us/cqfmeasures/StructureDefinition/cqfm-isTestCase","valueBoolean":true}],"status":"complete","type":"individual","measure":"https://madie.cms.gov/Measure/AnticoagulationTherapyforAtrialFibrillationFlutterFHIR","period":{"start":"2025-01-01","end":"2025-12-31"},"group":[{"population":[{"code":{"coding":[{"system":"http://terminology.hl7.org/CodeSystem/measure-population","code":"initial-population","display":"Initial Population"}]},"count":0},{"code":{"coding":[{"system":"http://terminology.hl7.org/CodeSystem/measure-population","code":"denominator","display":"Denominator"}]},"count":0},{"code":{"coding":[{"system":"http://terminology.hl7.org/CodeSystem/measure-population","code":"denominator-exclusion","display":"Denominator Exclusion"}]},"count":0},{"code":{"coding":[{"system":"http://terminology.hl7.org/CodeSystem/measure-population","code":"numerator","display":"Numerator"}]},"count":0},{"code":{"coding":[{"system":"http://terminology.hl7.org/CodeSystem/measure-population","code":"denominator-exception","display":"Denominator Exception"}]},"count":0}]}]},"request":{"method":"PUT","url":"MeasureReport/8eee7efc-d677-4491-94ec-2ad1bf156af2"}}]}