{"resourceType":"Bundle","id":"tests-c5eb810c-2abd-41ac-9838-81ab77532845-bundle","type":"transaction","entry":[{"fullUrl":"https://madie.cms.gov/Patient/c5eb810c-2abd-41ac-9838-81ab77532845","resource":{"resourceType":"Patient","id":"c5eb810c-2abd-41ac-9838-81ab77532845","meta":{"profile":["http://hl7.org/fhir/us/qicore/StructureDefinition/qicore-patient"]},"text":{"status":"generated","div":"<div xmlns=\"http://www.w3.org/1999/xhtml\"><div class=\"hapiHeaderText\">Anticoag@DC_TestOccurance <b>NUMERPASS </b></div><table class=\"hapiPropertyTable\"><tbody><tr><td>Identifier</td><td>b33e5c40a8266630a8099906ba9c4a7fec43a1f608aad75439f44c686ae32b2a</td></tr><tr><td>Date of birth</td><td><span>23 May 1954</span></td></tr></tbody></table></div>"},"extension":[{"url":"http://hl7.org/fhir/us/core/StructureDefinition/us-core-race","extension":[{"url":"ombCategory","valueCoding":{"system":"urn:oid:2.16.840.1.113883.6.238","code":"1002-5","display":"American Indian or Alaska Native","userSelected":true}},{"url":"text","valueString":"American Indian or Alaska Native"}]},{"url":"http://hl7.org/fhir/us/core/StructureDefinition/us-core-ethnicity","extension":[{"url":"ombCategory","valueCoding":{"system":"urn:oid:2.16.840.1.113883.6.238","code":"2135-2","display":"Hispanic or Latino","userSelected":true}},{"url":"text","valueString":"Hispanic or Latino"}]}],"identifier":[{"type":{"coding":[{"system":"http://terminology.hl7.org/CodeSystem/v2-0203","code":"MR"}]},"system":"https://bonnie-fhir.healthit.gov/","value":"633c9d040968f8012250fcaa"}],"active":true,"name":[{"use":"usual","family":"NUMERPass","given":["Anticoag@DC_TestOccurance"]}],"gender":"female","birthDate":"1954-05-23"},"request":{"method":"PUT","url":"Patient/c5eb810c-2abd-41ac-9838-81ab77532845"}},{"fullUrl":"https://madie.cms.gov/Encounter/5c953f97b848462de0ae4173","resource":{"resourceType":"Encounter","id":"b73ed4ca-bf2b-4f47-943c-60b6bb9849c6","meta":{"profile":["http://hl7.org/fhir/us/qicore/StructureDefinition/qicore-encounter"]},"status":"finished","class":{"system":"http://terminology.hl7.org/CodeSystem/v3-ActCode","code":"IMP","display":"inpatient encounter"},"type":[{"coding":[{"system":"http://snomed.info/sct","code":"183452005"}]}],"subject":{"reference":"Patient/c5eb810c-2abd-41ac-9838-81ab77532845"},"period":{"start":"2025-11-18T08:00:00.000Z","end":"2025-11-19T08:15:00.000Z"},"length":{"value":1,"unit":"days"}},"request":{"method":"PUT","url":"Encounter/b73ed4ca-bf2b-4f47-943c-60b6bb9849c6"}},{"fullUrl":"https://madie.cms.gov/Encounter/5c953f97b848462de0ae4174","resource":{"resourceType":"Encounter","id":"a37d47ea-231c-4523-ba0e-b0ce0caf011a","meta":{"profile":["http://hl7.org/fhir/us/qicore/StructureDefinition/qicore-encounter"]},"status":"finished","class":{"system":"http://terminology.hl7.org/CodeSystem/v3-ActCode","code":"IMP","display":"inpatient encounter"},"type":[{"coding":[{"system":"http://snomed.info/sct","code":"32485007"}]}],"subject":{"reference":"Patient/c5eb810c-2abd-41ac-9838-81ab77532845"},"period":{"start":"2025-11-20T08:00:00.000Z","end":"2025-11-24T08:15:00.000Z"},"length":{"value":4,"unit":"days"},"diagnosis":[{"condition":{"reference":"Condition/ischemic-stroke-19a1"},"use":{"coding":[{"system":"http://terminology.hl7.org/CodeSystem/diagnosis-role","code":"billing","display":"Billing"}]},"rank":1}]},"request":{"method":"PUT","url":"Encounter/a37d47ea-231c-4523-ba0e-b0ce0caf011a"}},{"fullUrl":"https://madie.cms.gov/MedicationRequest/5c953f97b848462de0ae4176","resource":{"resourceType":"MedicationRequest","id":"5f414701-5c40-4f36-8ec0-8e18fad28b5e","meta":{"profile":["http://hl7.org/fhir/us/qicore/StructureDefinition/qicore-medicationrequest"]},"status":"active","intent":"order","category":[{"coding":[{"system":"http://terminology.hl7.org/CodeSystem/medicationrequest-category","code":"discharge","display":"Discharge","userSelected":true}]}],"medicationCodeableConcept":{"coding":[{"system":"http://www.nlm.nih.gov/research/umls/rxnorm","code":"308351"}]},"subject":{"reference":"Patient/c5eb810c-2abd-41ac-9838-81ab77532845"},"authoredOn":"2025-11-24T08:00:00.000+00:00","requester":{"reference":"Practitioner/example"}},"request":{"method":"PUT","url":"MedicationRequest/5f414701-5c40-4f36-8ec0-8e18fad28b5e"}},{"fullUrl":"https://madie.cms.gov/Coverage/5f2c53d01c76ba5c9960579e","resource":{"resourceType":"Coverage","id":"d0e4b5f4-98c8-4669-8e63-2ace28326242","status":"active","beneficiary":{"reference":"Patient/c5eb810c-2abd-41ac-9838-81ab77532845"},"period":{"start":"1954-05-23T08:00:00.000Z"},"payor":[{"reference":"Organization/024e2731-b045-43bf-80d2-684774c5b51c"}]},"request":{"method":"PUT","url":"Coverage/d0e4b5f4-98c8-4669-8e63-2ace28326242"}},{"fullUrl":"https://madie.cms.gov/Procedure/5c953f97b848462de0ae4177","resource":{"resourceType":"Procedure","id":"8bf1f4ff-e26f-47f5-88f5-00865c095697","meta":{"profile":["http://hl7.org/fhir/us/qicore/StructureDefinition/qicore-procedure"]},"extension":[{"url":"http://hl7.org/fhir/us/qicore/StructureDefinition/qicore-recorded","valueDateTime":"2025-11-19T09:35:00-04:00"}],"status":"completed","code":{"coding":[{"system":"http://www.cms.gov/Medicare/Coding/ICD10","code":"02560ZZ"},{"system":"http://snomed.info/sct","code":"175095005"}]},"subject":{"reference":"Patient/c5eb810c-2abd-41ac-9838-81ab77532845"},"performedPeriod":{"start":"2025-11-20T06:00:00.000Z","end":"2025-11-20T07:15:00.000Z"}},"request":{"method":"PUT","url":"Procedure/8bf1f4ff-e26f-47f5-88f5-00865c095697"}},{"fullUrl":"https://madie.cms.gov/Condition/ischemic-stroke-19a1","resource":{"resourceType":"Condition","id":"7c38a177-8045-4b69-a624-ef05163de442","meta":{"profile":["http://hl7.org/fhir/us/qicore/StructureDefinition/qicore-condition"]},"clinicalStatus":{"coding":[{"system":"http://terminology.hl7.org/CodeSystem/condition-clinical","code":"active"}]},"verificationStatus":{"coding":[{"system":"http://terminology.hl7.org/CodeSystem/condition-ver-status","code":"confirmed"}]},"category":[{"coding":[{"system":"http://terminology.hl7.org/CodeSystem/condition-category","code":"encounter-diagnosis","display":"Encounter Diagnosis"}]}],"code":{"coding":[{"system":"http://snomed.info/sct","version":"2021-09","code":"111297002","display":"Nonparalytic stroke (disorder)","userSelected":true}]},"subject":{"reference":"Patient/c5eb810c-2abd-41ac-9838-81ab77532845"},"recordedDate":"2025-10-13T08:00:00.000+00:00"},"request":{"method":"PUT","url":"Condition/7c38a177-8045-4b69-a624-ef05163de442"}},{"fullUrl":"https://madie.cms.gov/Organization/123456","resource":{"resourceType":"Organization","id":"024e2731-b045-43bf-80d2-684774c5b51c","meta":{"profile":["http://hl7.org/fhir/us/qicore/StructureDefinition/qicore-organization"]},"identifier":[{"use":"temp","system":"urn:oid:2.16.840.1.113883.4.4","value":"21-3259825"}],"active":true,"type":[{"coding":[{"system":"http://terminology.hl7.org/CodeSystem/organization-type","code":"pay","display":"Payer"}]}],"name":"Blue Cross Blue Shield of Texas","telecom":[{"system":"phone","value":"(+1) 972-766-6900"}],"address":[{"use":"billing","type":"postal","line":["P.O. Box 660044"],"city":"Dallas","state":"TX","postalCode":"75266-0044","country":"USA"}]},"request":{"method":"PUT","url":"Organization/024e2731-b045-43bf-80d2-684774c5b51c"}},{"fullUrl":"https://madie.cms.gov/Practitioner/practitioner-123456","resource":{"resourceType":"Practitioner","id":"5d3a7bf6-90cf-4871-8c5e-1103515fdb08","identifier":[{"system":"http://hl7.org/fhir/sid/us-npi","value":"123456"}],"name":[{"family":"Evil","prefix":["Dr"]}]},"request":{"method":"PUT","url":"Practitioner/5d3a7bf6-90cf-4871-8c5e-1103515fdb08"}},{"fullUrl":"https://madie.cms.gov/MeasureReport/b157ed70-8b45-4b00-9e95-9806e33b6a50","resource":{"resourceType":"MeasureReport","id":"b157ed70-8b45-4b00-9e95-9806e33b6a50","meta":{"profile":["http://hl7.org/fhir/us/cqfmeasures/StructureDefinition/test-case-cqfm"]},"contained":[{"resourceType":"Parameters","id":"6e7755e3-9511-4ef3-b0d7-f098651d5227-parameters","parameter":[{"name":"subject","valueString":"c5eb810c-2abd-41ac-9838-81ab77532845"}]}],"extension":[{"url":"http://hl7.org/fhir/us/cqfmeasures/StructureDefinition/cqfm-inputParameters","valueReference":{"reference":"#6e7755e3-9511-4ef3-b0d7-f098651d5227-parameters"}},{"url":"http://hl7.org/fhir/us/cqfmeasures/StructureDefinition/cqfm-testCaseDescription","valueMarkdown":"Pt. discharged on anticoagulant, starts during OccurA not OccurB\n"}],"modifierExtension":[{"url":"http://hl7.org/fhir/us/cqfmeasures/StructureDefinition/cqfm-isTestCase","valueBoolean":true}],"status":"complete","type":"individual","measure":"https://madie.cms.gov/Measure/AnticoagulationTherapyforAtrialFibrillationFlutterFHIR","period":{"start":"2025-01-01","end":"2025-12-31"},"group":[{"population":[{"code":{"coding":[{"system":"http://terminology.hl7.org/CodeSystem/measure-population","code":"initial-population","display":"Initial Population"}]},"count":1},{"code":{"coding":[{"system":"http://terminology.hl7.org/CodeSystem/measure-population","code":"denominator","display":"Denominator"}]},"count":1},{"code":{"coding":[{"system":"http://terminology.hl7.org/CodeSystem/measure-population","code":"denominator-exclusion","display":"Denominator Exclusion"}]},"count":0},{"code":{"coding":[{"system":"http://terminology.hl7.org/CodeSystem/measure-population","code":"numerator","display":"Numerator"}]},"count":1},{"code":{"coding":[{"system":"http://terminology.hl7.org/CodeSystem/measure-population","code":"denominator-exception","display":"Denominator Exception"}]},"count":0}]}]},"request":{"method":"PUT","url":"MeasureReport/b157ed70-8b45-4b00-9e95-9806e33b6a50"}}]}