{"resourceType":"Bundle","id":"tests-2ed389dd-10d2-49b1-966b-f8bada7df530-bundle","type":"transaction","entry":[{"fullUrl":"https://madie.cms.gov/Patient/2ed389dd-10d2-49b1-966b-f8bada7df530","resource":{"resourceType":"Patient","id":"2ed389dd-10d2-49b1-966b-f8bada7df530","meta":{"profile":["http://hl7.org/fhir/us/qicore/StructureDefinition/qicore-patient"]},"text":{"status":"generated","div":"<div xmlns=\"http://www.w3.org/1999/xhtml\"><div class=\"hapiHeaderText\">CMOdurEnc_ED=1hrNoObsBFEnc <b>DENEXPASS </b></div><table class=\"hapiPropertyTable\"><tbody><tr><td>Identifier</td><td>c13349494c162d88448cb3ad5c0d4a05</td></tr><tr><td>Date of birth</td><td><span>18 September 1985</span></td></tr></tbody></table></div>"},"extension":[{"url":"http://hl7.org/fhir/us/core/StructureDefinition/us-core-race","extension":[{"url":"ombCategory","valueCoding":{"system":"urn:oid:2.16.840.1.113883.6.238","code":"1002-5","display":"American Indian or Alaska Native","userSelected":true}},{"url":"text","valueString":"American Indian or Alaska Native"}]},{"url":"http://hl7.org/fhir/us/core/StructureDefinition/us-core-ethnicity","extension":[{"url":"ombCategory","valueCoding":{"system":"urn:oid:2.16.840.1.113883.6.238","code":"2135-2","display":"Hispanic or Latino","userSelected":true}},{"url":"text","valueString":"Hispanic or Latino"}]}],"identifier":[{"type":{"coding":[{"system":"http://terminology.hl7.org/CodeSystem/v2-0203","code":"MR"}]},"system":"https://bonnie-fhir.healthit.gov/","value":"633c9d030968f8012250fc83"}],"active":true,"name":[{"use":"usual","family":"DENEXPass","given":["CMOdurEnc_ED=1hrNoObsBFEnc"]}],"gender":"female","birthDate":"1985-09-18"},"request":{"method":"PUT","url":"Patient/2ed389dd-10d2-49b1-966b-f8bada7df530"}},{"fullUrl":"https://madie.cms.gov/Condition/5c953f97b848462de0ae410e","resource":{"resourceType":"Condition","id":"9074576a-a308-41e5-afa1-7a512bfea4ad","meta":{"profile":["http://hl7.org/fhir/us/qicore/StructureDefinition/qicore-condition"]},"clinicalStatus":{"coding":[{"system":"http://terminology.hl7.org/CodeSystem/condition-clinical","code":"inactive"}]},"verificationStatus":{"coding":[{"system":"http://terminology.hl7.org/CodeSystem/condition-ver-status","code":"confirmed"}]},"category":[{"coding":[{"system":"http://terminology.hl7.org/CodeSystem/condition-category","code":"encounter-diagnosis","display":"Encounter Diagnosis"}]}],"code":{"coding":[{"system":"http://hl7.org/fhir/sid/icd-10-cm","code":"I48.20"},{"system":"http://hl7.org/fhir/sid/icd-10-cm","code":"I48.0"},{"system":"http://snomed.info/sct","code":"5370000"}]},"subject":{"reference":"Patient/2ed389dd-10d2-49b1-966b-f8bada7df530"},"onsetDateTime":"2025-10-01T09:00:00.000Z","abatementDateTime":"2025-10-12T00:15:00.000Z"},"request":{"method":"PUT","url":"Condition/9074576a-a308-41e5-afa1-7a512bfea4ad"}},{"fullUrl":"https://madie.cms.gov/Encounter/5c953f97b848462de0ae410f","resource":{"resourceType":"Encounter","id":"7b1ab8b7-8ff8-4e2e-b95b-9be97aa2cf60","meta":{"profile":["http://hl7.org/fhir/us/qicore/StructureDefinition/qicore-encounter"]},"status":"finished","class":{"system":"http://terminology.hl7.org/CodeSystem/v3-ActCode","code":"EMER","display":"emergency"},"type":[{"coding":[{"system":"http://snomed.info/sct","code":"4525004"}]}],"subject":{"reference":"Patient/2ed389dd-10d2-49b1-966b-f8bada7df530"},"period":{"start":"2025-10-01T08:00:00.000Z","end":"2025-10-01T09:00:00.000Z"},"length":{"value":0,"unit":"days"}},"request":{"method":"PUT","url":"Encounter/7b1ab8b7-8ff8-4e2e-b95b-9be97aa2cf60"}},{"fullUrl":"https://madie.cms.gov/Encounter/5c953f97b848462de0ae4110","resource":{"resourceType":"Encounter","id":"31bb75a5-7916-4c44-ad97-f783e83ed3ed","meta":{"profile":["http://hl7.org/fhir/us/qicore/StructureDefinition/qicore-encounter"]},"status":"finished","class":{"system":"http://terminology.hl7.org/CodeSystem/v3-ActCode","code":"IMP","display":"inpatient encounter"},"type":[{"coding":[{"system":"http://snomed.info/sct","code":"32485007"}]}],"subject":{"reference":"Patient/2ed389dd-10d2-49b1-966b-f8bada7df530"},"period":{"start":"2025-10-01T09:00:00.000Z","end":"2025-10-12T00:15:00.000Z"},"length":{"value":11,"unit":"days"},"diagnosis":[{"condition":{"reference":"Condition/ischemic-stroke-1966"},"use":{"coding":[{"system":"http://terminology.hl7.org/CodeSystem/diagnosis-role","code":"billing","display":"Billing"}]},"rank":1}]},"request":{"method":"PUT","url":"Encounter/31bb75a5-7916-4c44-ad97-f783e83ed3ed"}},{"fullUrl":"https://madie.cms.gov/ServiceRequest/5c953f97b848462de0ae4112","resource":{"resourceType":"ServiceRequest","id":"0b3d840e-cfb1-4465-a214-1afee34981a1","meta":{"profile":["http://hl7.org/fhir/us/qicore/StructureDefinition/qicore-servicerequest"]},"status":"active","intent":"order","code":{"coding":[{"system":"http://snomed.info/sct","code":"133918004"}]},"subject":{"reference":"Patient/2ed389dd-10d2-49b1-966b-f8bada7df530"},"authoredOn":"2025-10-01T09:15:00.000+00:00"},"request":{"method":"PUT","url":"ServiceRequest/0b3d840e-cfb1-4465-a214-1afee34981a1"}},{"fullUrl":"https://madie.cms.gov/Coverage/5f2c53cb1c76ba5c99605729","resource":{"resourceType":"Coverage","id":"bdf0c8a3-220c-4325-8b4b-a807c27cd939","status":"active","beneficiary":{"reference":"Patient/2ed389dd-10d2-49b1-966b-f8bada7df530"},"period":{"start":"1985-09-18T08:00:00.000Z"},"payor":[{"reference":"Organization/ec8cac12-7dd8-4c6e-8c44-d6c645085c80"}]},"request":{"method":"PUT","url":"Coverage/bdf0c8a3-220c-4325-8b4b-a807c27cd939"}},{"fullUrl":"https://madie.cms.gov/Condition/ischemic-stroke-1966","resource":{"resourceType":"Condition","id":"847e9c06-ebae-48a3-86c7-abdb74127e69","meta":{"profile":["http://hl7.org/fhir/us/qicore/StructureDefinition/qicore-condition"]},"clinicalStatus":{"coding":[{"system":"http://terminology.hl7.org/CodeSystem/condition-clinical","code":"active"}]},"verificationStatus":{"coding":[{"system":"http://terminology.hl7.org/CodeSystem/condition-ver-status","code":"confirmed"}]},"category":[{"coding":[{"system":"http://terminology.hl7.org/CodeSystem/condition-category","code":"encounter-diagnosis","display":"Encounter Diagnosis"}]}],"code":{"coding":[{"system":"http://snomed.info/sct","version":"2021-09","code":"111297002","display":"Nonparalytic stroke (disorder)","userSelected":true}]},"subject":{"reference":"Patient/2ed389dd-10d2-49b1-966b-f8bada7df530"},"recordedDate":"2025-10-13T08:00:00.000+00:00"},"request":{"method":"PUT","url":"Condition/847e9c06-ebae-48a3-86c7-abdb74127e69"}},{"fullUrl":"https://madie.cms.gov/Organization/123456","resource":{"resourceType":"Organization","id":"ec8cac12-7dd8-4c6e-8c44-d6c645085c80","meta":{"profile":["http://hl7.org/fhir/us/qicore/StructureDefinition/qicore-organization"]},"identifier":[{"use":"temp","system":"urn:oid:2.16.840.1.113883.4.4","value":"21-3259825"}],"active":true,"type":[{"coding":[{"system":"http://terminology.hl7.org/CodeSystem/organization-type","code":"pay","display":"Payer"}]}],"name":"Blue Cross Blue Shield of Texas","telecom":[{"system":"phone","value":"(+1) 972-766-6900"}],"address":[{"use":"billing","type":"postal","line":["P.O. Box 660044"],"city":"Dallas","state":"TX","postalCode":"75266-0044","country":"USA"}]},"request":{"method":"PUT","url":"Organization/ec8cac12-7dd8-4c6e-8c44-d6c645085c80"}},{"fullUrl":"https://madie.cms.gov/Practitioner/practitioner-123456","resource":{"resourceType":"Practitioner","id":"109d7a88-4cea-418d-8e98-e2fb758f3d86","identifier":[{"system":"http://hl7.org/fhir/sid/us-npi","value":"123456"}],"name":[{"family":"Evil","prefix":["Dr"]}]},"request":{"method":"PUT","url":"Practitioner/109d7a88-4cea-418d-8e98-e2fb758f3d86"}},{"fullUrl":"https://madie.cms.gov/MeasureReport/22091fc8-d33d-4fd2-b8bb-a5dfc3223db5","resource":{"resourceType":"MeasureReport","id":"22091fc8-d33d-4fd2-b8bb-a5dfc3223db5","meta":{"profile":["http://hl7.org/fhir/us/cqfmeasures/StructureDefinition/test-case-cqfm"]},"contained":[{"resourceType":"Parameters","id":"0e47cb08-ff0a-4fd9-9e49-3f6d5a8032d0-parameters","parameter":[{"name":"subject","valueString":"2ed389dd-10d2-49b1-966b-f8bada7df530"}]}],"extension":[{"url":"http://hl7.org/fhir/us/cqfmeasures/StructureDefinition/cqfm-inputParameters","valueReference":{"reference":"#0e47cb08-ff0a-4fd9-9e49-3f6d5a8032d0-parameters"}},{"url":"http://hl7.org/fhir/us/cqfmeasures/StructureDefinition/cqfm-testCaseDescription","valueMarkdown":"Patient receives CMO during inpatient encounter. ED starts 60 minutes before inpatient encounter start. No Observation. Testing HospitalizationWithObservation function.\n"}],"modifierExtension":[{"url":"http://hl7.org/fhir/us/cqfmeasures/StructureDefinition/cqfm-isTestCase","valueBoolean":true}],"status":"complete","type":"individual","measure":"https://madie.cms.gov/Measure/AnticoagulationTherapyforAtrialFibrillationFlutterFHIR","period":{"start":"2025-01-01","end":"2025-12-31"},"group":[{"population":[{"code":{"coding":[{"system":"http://terminology.hl7.org/CodeSystem/measure-population","code":"initial-population","display":"Initial Population"}]},"count":1},{"code":{"coding":[{"system":"http://terminology.hl7.org/CodeSystem/measure-population","code":"denominator","display":"Denominator"}]},"count":1},{"code":{"coding":[{"system":"http://terminology.hl7.org/CodeSystem/measure-population","code":"denominator-exclusion","display":"Denominator Exclusion"}]},"count":1},{"code":{"coding":[{"system":"http://terminology.hl7.org/CodeSystem/measure-population","code":"numerator","display":"Numerator"}]},"count":0},{"code":{"coding":[{"system":"http://terminology.hl7.org/CodeSystem/measure-population","code":"denominator-exception","display":"Denominator Exception"}]},"count":0}]}]},"request":{"method":"PUT","url":"MeasureReport/22091fc8-d33d-4fd2-b8bb-a5dfc3223db5"}}]}