{"resourceType":"Bundle","id":"tests-2d694619-fb6d-43e5-8f56-4eb95752c7a7-bundle","type":"transaction","entry":[{"fullUrl":"https://madie.cms.gov/Patient/2d694619-fb6d-43e5-8f56-4eb95752c7a7","resource":{"resourceType":"Patient","id":"2d694619-fb6d-43e5-8f56-4eb95752c7a7","meta":{"profile":["http://hl7.org/fhir/us/qicore/StructureDefinition/qicore-patient"]},"text":{"status":"generated","div":"<div xmlns=\"http://www.w3.org/1999/xhtml\"><div class=\"hapiHeaderText\">CMOdurED_ED=1hrObs=1hrBFEnc <b>DENEXPASS </b></div><table class=\"hapiPropertyTable\"><tbody><tr><td>Identifier</td><td>c7d7fbb05b3fb095f038e7bb032293f972cd9bbdd4b9c869e38f2b84ac1213ac</td></tr><tr><td>Date of birth</td><td><span>18 September 1985</span></td></tr></tbody></table></div>"},"extension":[{"url":"http://hl7.org/fhir/us/core/StructureDefinition/us-core-race","extension":[{"url":"ombCategory","valueCoding":{"system":"urn:oid:2.16.840.1.113883.6.238","code":"1002-5","display":"American Indian or Alaska Native","userSelected":true}},{"url":"text","valueString":"American Indian or Alaska Native"}]},{"url":"http://hl7.org/fhir/us/core/StructureDefinition/us-core-ethnicity","extension":[{"url":"ombCategory","valueCoding":{"system":"urn:oid:2.16.840.1.113883.6.238","code":"2135-2","display":"Hispanic or Latino","userSelected":true}},{"url":"text","valueString":"Hispanic or Latino"}]}],"identifier":[{"type":{"coding":[{"system":"http://terminology.hl7.org/CodeSystem/v2-0203","code":"MR"}]},"system":"https://bonnie-fhir.healthit.gov/","value":"633c9d040968f8012250fca5"}],"active":true,"name":[{"use":"usual","family":"DENEXPass","given":["CMOdurED_ED=1hrObs=1hrBFEnc"]}],"gender":"female","birthDate":"1985-09-18"},"request":{"method":"PUT","url":"Patient/2d694619-fb6d-43e5-8f56-4eb95752c7a7"}},{"fullUrl":"https://madie.cms.gov/Condition/5c953f97b848462de0ae4155","resource":{"resourceType":"Condition","id":"83d8982d-c2d9-4119-8833-58131d45264a","meta":{"profile":["http://hl7.org/fhir/us/qicore/StructureDefinition/qicore-condition"]},"clinicalStatus":{"coding":[{"system":"http://terminology.hl7.org/CodeSystem/condition-clinical","code":"inactive"}]},"verificationStatus":{"coding":[{"system":"http://terminology.hl7.org/CodeSystem/condition-ver-status","code":"confirmed"}]},"category":[{"coding":[{"system":"http://terminology.hl7.org/CodeSystem/condition-category","code":"encounter-diagnosis","display":"Encounter Diagnosis"}]}],"code":{"coding":[{"system":"http://hl7.org/fhir/sid/icd-10-cm","code":"I48.20"},{"system":"http://hl7.org/fhir/sid/icd-10-cm","code":"I48.0"},{"system":"http://snomed.info/sct","code":"5370000"}]},"subject":{"reference":"Patient/2d694619-fb6d-43e5-8f56-4eb95752c7a7"},"onsetDateTime":"2025-10-01T09:00:00.000Z","abatementDateTime":"2025-10-12T00:15:00.000Z"},"request":{"method":"PUT","url":"Condition/83d8982d-c2d9-4119-8833-58131d45264a"}},{"fullUrl":"https://madie.cms.gov/Encounter/5c953f97b848462de0ae4156","resource":{"resourceType":"Encounter","id":"df262077-4a46-4cc6-8b95-3160e7c7460e","meta":{"profile":["http://hl7.org/fhir/us/qicore/StructureDefinition/qicore-encounter"]},"status":"finished","class":{"system":"http://terminology.hl7.org/CodeSystem/v3-ActCode","code":"EMER","display":"emergency"},"type":[{"coding":[{"system":"http://snomed.info/sct","code":"4525004"}]}],"subject":{"reference":"Patient/2d694619-fb6d-43e5-8f56-4eb95752c7a7"},"period":{"start":"2025-09-30T07:59:00.000Z","end":"2025-09-30T08:00:00.000Z"},"length":{"value":0,"unit":"days"}},"request":{"method":"PUT","url":"Encounter/df262077-4a46-4cc6-8b95-3160e7c7460e"}},{"fullUrl":"https://madie.cms.gov/Encounter/5c953f97b848462de0ae4157","resource":{"resourceType":"Encounter","id":"79d99ecf-d163-4266-ad8d-bbbd255a5db5","meta":{"profile":["http://hl7.org/fhir/us/qicore/StructureDefinition/qicore-encounter"]},"status":"finished","class":{"system":"http://terminology.hl7.org/CodeSystem/v3-ActCode","code":"OBSENC","display":"observation encounter"},"type":[{"coding":[{"system":"http://snomed.info/sct","code":"448951000124107"}]}],"subject":{"reference":"Patient/2d694619-fb6d-43e5-8f56-4eb95752c7a7"},"period":{"start":"2025-09-30T09:00:00.000Z","end":"2025-09-30T09:01:00.000Z"},"length":{"value":0,"unit":"days"}},"request":{"method":"PUT","url":"Encounter/79d99ecf-d163-4266-ad8d-bbbd255a5db5"}},{"fullUrl":"https://madie.cms.gov/Encounter/5c953f97b848462de0ae4158","resource":{"resourceType":"Encounter","id":"0fb7bc0b-8e71-4a5f-843e-26ac4fbb30cd","meta":{"profile":["http://hl7.org/fhir/us/qicore/StructureDefinition/qicore-encounter"]},"status":"finished","class":{"system":"http://terminology.hl7.org/CodeSystem/v3-ActCode","code":"IMP","display":"inpatient encounter"},"type":[{"coding":[{"system":"http://snomed.info/sct","code":"32485007"}]}],"subject":{"reference":"Patient/2d694619-fb6d-43e5-8f56-4eb95752c7a7"},"period":{"start":"2025-09-30T10:01:00.000Z","end":"2025-10-12T00:15:00.000Z"},"length":{"value":12,"unit":"days"},"diagnosis":[{"condition":{"reference":"Condition/ischemic-stroke-1964"},"use":{"coding":[{"system":"http://terminology.hl7.org/CodeSystem/diagnosis-role","code":"billing","display":"Billing"}]},"rank":1}]},"request":{"method":"PUT","url":"Encounter/0fb7bc0b-8e71-4a5f-843e-26ac4fbb30cd"}},{"fullUrl":"https://madie.cms.gov/ServiceRequest/5c953f97b848462de0ae415a","resource":{"resourceType":"ServiceRequest","id":"50ca8d47-6ddc-4d43-acfb-ab8997357107","meta":{"profile":["http://hl7.org/fhir/us/qicore/StructureDefinition/qicore-servicerequest"]},"status":"active","intent":"order","code":{"coding":[{"system":"http://snomed.info/sct","code":"133918004"}]},"subject":{"reference":"Patient/2d694619-fb6d-43e5-8f56-4eb95752c7a7"},"authoredOn":"2025-09-30T08:00:00.000+00:00"},"request":{"method":"PUT","url":"ServiceRequest/50ca8d47-6ddc-4d43-acfb-ab8997357107"}},{"fullUrl":"https://madie.cms.gov/Coverage/5f2c53cf1c76ba5c9960578f","resource":{"resourceType":"Coverage","id":"a9f76376-3e57-45eb-a247-2f86b1b91748","status":"active","beneficiary":{"reference":"Patient/2d694619-fb6d-43e5-8f56-4eb95752c7a7"},"period":{"start":"1985-09-18T08:00:00.000Z"},"payor":[{"reference":"Organization/ec8cac12-7dd8-4c6e-8c44-d6c645085c80"}]},"request":{"method":"PUT","url":"Coverage/a9f76376-3e57-45eb-a247-2f86b1b91748"}},{"fullUrl":"https://madie.cms.gov/Condition/ischemic-stroke-1964","resource":{"resourceType":"Condition","id":"0e4828c4-168d-4655-8789-9892d94032eb","meta":{"profile":["http://hl7.org/fhir/us/qicore/StructureDefinition/qicore-condition"]},"clinicalStatus":{"coding":[{"system":"http://terminology.hl7.org/CodeSystem/condition-clinical","code":"active"}]},"verificationStatus":{"coding":[{"system":"http://terminology.hl7.org/CodeSystem/condition-ver-status","code":"confirmed"}]},"category":[{"coding":[{"system":"http://terminology.hl7.org/CodeSystem/condition-category","code":"encounter-diagnosis","display":"Encounter Diagnosis"}]}],"code":{"coding":[{"system":"http://snomed.info/sct","version":"2021-09","code":"111297002","display":"Nonparalytic stroke (disorder)","userSelected":true}]},"subject":{"reference":"Patient/2d694619-fb6d-43e5-8f56-4eb95752c7a7"},"recordedDate":"2025-10-13T08:00:00.000+00:00"},"request":{"method":"PUT","url":"Condition/0e4828c4-168d-4655-8789-9892d94032eb"}},{"fullUrl":"https://madie.cms.gov/Organization/123456","resource":{"resourceType":"Organization","id":"ec8cac12-7dd8-4c6e-8c44-d6c645085c80","meta":{"profile":["http://hl7.org/fhir/us/qicore/StructureDefinition/qicore-organization"]},"identifier":[{"use":"temp","system":"urn:oid:2.16.840.1.113883.4.4","value":"21-3259825"}],"active":true,"type":[{"coding":[{"system":"http://terminology.hl7.org/CodeSystem/organization-type","code":"pay","display":"Payer"}]}],"name":"Blue Cross Blue Shield of Texas","telecom":[{"system":"phone","value":"(+1) 972-766-6900"}],"address":[{"use":"billing","type":"postal","line":["P.O. Box 660044"],"city":"Dallas","state":"TX","postalCode":"75266-0044","country":"USA"}]},"request":{"method":"PUT","url":"Organization/ec8cac12-7dd8-4c6e-8c44-d6c645085c80"}},{"fullUrl":"https://madie.cms.gov/Practitioner/practitioner-123456","resource":{"resourceType":"Practitioner","id":"f68dd969-478f-41e5-a16f-44d86c148abc","identifier":[{"system":"http://hl7.org/fhir/sid/us-npi","value":"123456"}],"name":[{"family":"Evil","prefix":["Dr"]}]},"request":{"method":"PUT","url":"Practitioner/f68dd969-478f-41e5-a16f-44d86c148abc"}},{"fullUrl":"https://madie.cms.gov/MeasureReport/551b22f6-c4a6-4235-a649-50c09e5d012d","resource":{"resourceType":"MeasureReport","id":"551b22f6-c4a6-4235-a649-50c09e5d012d","meta":{"profile":["http://hl7.org/fhir/us/cqfmeasures/StructureDefinition/test-case-cqfm"]},"contained":[{"resourceType":"Parameters","id":"a8bb77a7-d0cb-45df-8eb5-9ac431182ace-parameters","parameter":[{"name":"subject","valueString":"2d694619-fb6d-43e5-8f56-4eb95752c7a7"}]}],"extension":[{"url":"http://hl7.org/fhir/us/cqfmeasures/StructureDefinition/cqfm-inputParameters","valueReference":{"reference":"#a8bb77a7-d0cb-45df-8eb5-9ac431182ace-parameters"}},{"url":"http://hl7.org/fhir/us/cqfmeasures/StructureDefinition/cqfm-testCaseDescription","valueMarkdown":"Patient receives CMO during ED. ED ends 60 min before Obs start and Obs ends 60 min before  inpatient start.  Testing HospitalizationWithObservation function\n"}],"modifierExtension":[{"url":"http://hl7.org/fhir/us/cqfmeasures/StructureDefinition/cqfm-isTestCase","valueBoolean":true}],"status":"complete","type":"individual","measure":"https://madie.cms.gov/Measure/AnticoagulationTherapyforAtrialFibrillationFlutterFHIR","period":{"start":"2025-01-01","end":"2025-12-31"},"group":[{"population":[{"code":{"coding":[{"system":"http://terminology.hl7.org/CodeSystem/measure-population","code":"initial-population","display":"Initial Population"}]},"count":1},{"code":{"coding":[{"system":"http://terminology.hl7.org/CodeSystem/measure-population","code":"denominator","display":"Denominator"}]},"count":1},{"code":{"coding":[{"system":"http://terminology.hl7.org/CodeSystem/measure-population","code":"denominator-exclusion","display":"Denominator Exclusion"}]},"count":1},{"code":{"coding":[{"system":"http://terminology.hl7.org/CodeSystem/measure-population","code":"numerator","display":"Numerator"}]},"count":0},{"code":{"coding":[{"system":"http://terminology.hl7.org/CodeSystem/measure-population","code":"denominator-exception","display":"Denominator Exception"}]},"count":0}]}]},"request":{"method":"PUT","url":"MeasureReport/551b22f6-c4a6-4235-a649-50c09e5d012d"}}]}