{"resourceType":"Bundle","id":"tests-b1d0c606-661d-44e8-a25f-4e7ca8131f2a-bundle","type":"transaction","entry":[{"fullUrl":"https://madie.cms.gov/Patient/b1d0c606-661d-44e8-a25f-4e7ca8131f2a","resource":{"resourceType":"Patient","id":"b1d0c606-661d-44e8-a25f-4e7ca8131f2a","meta":{"profile":["http://hl7.org/fhir/us/qicore/StructureDefinition/qicore-patient"]},"text":{"status":"generated","div":"<div xmlns=\"http://www.w3.org/1999/xhtml\"><div class=\"hapiHeaderText\">CMOdurEnc_ED&gt;1hrObs&gt;1hrBFEnc <b>DENEXPASS </b></div><table class=\"hapiPropertyTable\"><tbody><tr><td>Identifier</td><td>46dce2b3319988ed781af0093af5d517</td></tr><tr><td>Date of birth</td><td><span>18 September 1985</span></td></tr></tbody></table></div>"},"extension":[{"url":"http://hl7.org/fhir/us/core/StructureDefinition/us-core-race","extension":[{"url":"ombCategory","valueCoding":{"system":"urn:oid:2.16.840.1.113883.6.238","code":"1002-5","display":"American Indian or Alaska Native","userSelected":true}},{"url":"text","valueString":"American Indian or Alaska Native"}]},{"url":"http://hl7.org/fhir/us/core/StructureDefinition/us-core-ethnicity","extension":[{"url":"ombCategory","valueCoding":{"system":"urn:oid:2.16.840.1.113883.6.238","code":"2135-2","display":"Hispanic or Latino","userSelected":true}},{"url":"text","valueString":"Hispanic or Latino"}]}],"identifier":[{"type":{"coding":[{"system":"http://terminology.hl7.org/CodeSystem/v2-0203","code":"MR"}]},"system":"https://bonnie-fhir.healthit.gov/","value":"633c9d030968f8012250fc9b"}],"active":true,"name":[{"use":"usual","family":"DENEXPass","given":["CMOdurEnc_ED>1hrObs>1hrBFEnc"]}],"gender":"female","birthDate":"1985-09-18"},"request":{"method":"PUT","url":"Patient/b1d0c606-661d-44e8-a25f-4e7ca8131f2a"}},{"fullUrl":"https://madie.cms.gov/Condition/5c953f97b848462de0ae40fc","resource":{"resourceType":"Condition","id":"5c953f97b848462de0ae40fc","meta":{"profile":["http://hl7.org/fhir/us/qicore/StructureDefinition/qicore-condition"]},"clinicalStatus":{"coding":[{"system":"http://terminology.hl7.org/CodeSystem/condition-clinical","code":"inactive"}]},"verificationStatus":{"coding":[{"system":"http://terminology.hl7.org/CodeSystem/condition-ver-status","code":"confirmed"}]},"category":[{"coding":[{"system":"http://terminology.hl7.org/CodeSystem/condition-category","code":"encounter-diagnosis","display":"Encounter Diagnosis"}]}],"code":{"coding":[{"system":"http://hl7.org/fhir/sid/icd-10-cm","code":"I48.20"},{"system":"http://hl7.org/fhir/sid/icd-10-cm","code":"I48.0"},{"system":"http://snomed.info/sct","code":"5370000"}]},"subject":{"reference":"Patient/b1d0c606-661d-44e8-a25f-4e7ca8131f2a"},"onsetDateTime":"2025-10-01T09:00:00.000Z","abatementDateTime":"2025-10-12T00:15:00.000Z"},"request":{"method":"PUT","url":"Condition/5c953f97b848462de0ae40fc"}},{"fullUrl":"https://madie.cms.gov/Encounter/5c953f97b848462de0ae40fd","resource":{"resourceType":"Encounter","id":"5c953f97b848462de0ae40fd","meta":{"profile":["http://hl7.org/fhir/us/qicore/StructureDefinition/qicore-encounter"]},"status":"finished","class":{"system":"http://terminology.hl7.org/CodeSystem/v3-ActCode","code":"EMER","display":"emergency"},"type":[{"coding":[{"system":"http://snomed.info/sct","code":"4525004"}]}],"subject":{"reference":"Patient/b1d0c606-661d-44e8-a25f-4e7ca8131f2a"},"period":{"start":"2025-10-01T07:59:00.000Z","end":"2025-10-01T08:00:00.000Z"},"length":{"value":0.0,"unit":"days"}},"request":{"method":"PUT","url":"Encounter/5c953f97b848462de0ae40fd"}},{"fullUrl":"https://madie.cms.gov/Encounter/5c953f97b848462de0ae40fe","resource":{"resourceType":"Encounter","id":"5c953f97b848462de0ae40fe","meta":{"profile":["http://hl7.org/fhir/us/qicore/StructureDefinition/qicore-encounter"]},"status":"finished","class":{"system":"http://terminology.hl7.org/CodeSystem/v3-ActCode","code":"OBSENC","display":"observation encounter"},"type":[{"coding":[{"system":"http://snomed.info/sct","code":"448851000124103"}]}],"subject":{"reference":"Patient/b1d0c606-661d-44e8-a25f-4e7ca8131f2a"},"period":{"start":"2025-10-01T09:01:00.000Z","end":"2025-10-01T09:30:00.000Z"},"length":{"value":0.0,"unit":"days"}},"request":{"method":"PUT","url":"Encounter/5c953f97b848462de0ae40fe"}},{"fullUrl":"https://madie.cms.gov/Encounter/5c953f97b848462de0ae40ff","resource":{"resourceType":"Encounter","id":"5c953f97b848462de0ae40ff","meta":{"profile":["http://hl7.org/fhir/us/qicore/StructureDefinition/qicore-encounter"]},"status":"finished","class":{"system":"http://terminology.hl7.org/CodeSystem/v3-ActCode","code":"IMP","display":"inpatient encounter"},"type":[{"coding":[{"system":"http://snomed.info/sct","code":"32485007"}]}],"subject":{"reference":"Patient/b1d0c606-661d-44e8-a25f-4e7ca8131f2a"},"period":{"start":"2025-10-01T10:31:00.000Z","end":"2025-10-12T00:15:00.000Z"},"length":{"value":11.0,"unit":"days"},"diagnosis":[{"condition":{"reference":"Condition/ischemic-stroke-1968"},"use":{"coding":[{"system":"http://hl7.org/fhir/sid/icd-10-cm","version":"2022","code":"I63.019","display":"Cerebral infarction due to thrombosis of unspecified vertebral artery","userSelected":true}]},"rank":1}]},"request":{"method":"PUT","url":"Encounter/5c953f97b848462de0ae40ff"}},{"fullUrl":"https://madie.cms.gov/ServiceRequest/5c953f97b848462de0ae4101","resource":{"resourceType":"ServiceRequest","id":"5c953f97b848462de0ae4101","meta":{"profile":["http://hl7.org/fhir/us/qicore/StructureDefinition/qicore-servicerequest"]},"status":"active","intent":"order","code":{"coding":[{"system":"http://snomed.info/sct","code":"133918004"}]},"subject":{"reference":"Patient/b1d0c606-661d-44e8-a25f-4e7ca8131f2a"},"authoredOn":"2025-10-01T11:30:00.000+00:00"},"request":{"method":"PUT","url":"ServiceRequest/5c953f97b848462de0ae4101"}},{"fullUrl":"https://madie.cms.gov/Coverage/5f2c53ce1c76ba5c99605771","resource":{"resourceType":"Coverage","id":"5f2c53ce1c76ba5c99605771","status":"active","beneficiary":{"reference":"Patient/b1d0c606-661d-44e8-a25f-4e7ca8131f2a"},"period":{"start":"1985-09-18T08:00:00.000Z"},"payor":[{"reference":"Organization/Org-123456"}]},"request":{"method":"PUT","url":"Coverage/5f2c53ce1c76ba5c99605771"}},{"fullUrl":"https://madie.cms.gov/Condition/ischemic-stroke-1968","resource":{"resourceType":"Condition","id":"ischemic-stroke-1968","meta":{"profile":["http://hl7.org/fhir/us/qicore/StructureDefinition/qicore-condition"]},"clinicalStatus":{"coding":[{"system":"http://terminology.hl7.org/CodeSystem/condition-clinical","code":"active"}]},"verificationStatus":{"coding":[{"system":"http://terminology.hl7.org/CodeSystem/condition-ver-status","code":"confirmed"}]},"category":[{"coding":[{"system":"http://terminology.hl7.org/CodeSystem/condition-category","code":"encounter-diagnosis","display":"Encounter Diagnosis"}]}],"code":{"coding":[{"system":"http://snomed.info/sct","version":"2021-09","code":"111297002","display":"Nonparalytic stroke (disorder)","userSelected":true}]},"subject":{"reference":"Patient/b1d0c606-661d-44e8-a25f-4e7ca8131f2a"},"recordedDate":"2025-10-13T08:00:00.000+00:00"},"request":{"method":"PUT","url":"Condition/ischemic-stroke-1968"}},{"fullUrl":"https://madie.cms.gov/Organization/123456","resource":{"resourceType":"Organization","id":"Org-123456","meta":{"profile":["http://hl7.org/fhir/us/qicore/StructureDefinition/qicore-organization"]},"identifier":[{"use":"temp","system":"urn:oid:2.16.840.1.113883.4.4","value":"21-3259825"}],"active":true,"type":[{"coding":[{"system":"http://terminology.hl7.org/CodeSystem/organization-type","code":"pay","display":"Payer"}]}],"name":"Blue Cross Blue Shield of Texas","telecom":[{"system":"phone","value":"(+1) 972-766-6900"}],"address":[{"use":"billing","type":"postal","line":["P.O. Box 660044"],"city":"Dallas","state":"TX","postalCode":"75266-0044","country":"USA"}]},"request":{"method":"PUT","url":"Organization/Org-123456"}},{"fullUrl":"https://madie.cms.gov/Practitioner/practitioner-123456","resource":{"resourceType":"Practitioner","id":"practitioner-123456","identifier":[{"system":"http://hl7.org/fhir/sid/us-npi","value":"123456"}],"name":[{"family":"Evil","prefix":["Dr"]}]},"request":{"method":"PUT","url":"Practitioner/practitioner-123456"}},{"fullUrl":"https://madie.cms.gov/MeasureReport/76e7254e-ab8c-4697-a4b7-a4437b2a0f1e","resource":{"resourceType":"MeasureReport","id":"76e7254e-ab8c-4697-a4b7-a4437b2a0f1e","meta":{"profile":["http://hl7.org/fhir/us/cqfmeasures/StructureDefinition/test-case-cqfm"]},"contained":[{"resourceType":"Parameters","id":"09303ddf-f00a-480f-9af9-2b09bea4ad57-parameters","parameter":[{"name":"subject","valueString":"b1d0c606-661d-44e8-a25f-4e7ca8131f2a"}]}],"extension":[{"url":"http://hl7.org/fhir/us/cqfmeasures/StructureDefinition/cqfm-inputParameters","valueReference":{"reference":"#09303ddf-f00a-480f-9af9-2b09bea4ad57-parameters"}},{"url":"http://hl7.org/fhir/us/cqfmeasures/StructureDefinition/cqfm-testCaseDescription","valueMarkdown":"Patient receives CMO during inpatient encounter. ED ends 61 minutes before Obs start, Obs ends 61 min before inpatient encounter start. Testing HospitalizationWithObservation function.\n"}],"modifierExtension":[{"url":"http://hl7.org/fhir/us/cqfmeasures/StructureDefinition/cqfm-isTestCase","valueBoolean":true}],"status":"complete","type":"individual","measure":"https://madie.cms.gov/Measure/AnticoagulationTherapyforAtrialFibrillationFlutterFHIR","period":{"start":"2025-01-01","end":"2025-12-31"},"group":[{"population":[{"code":{"coding":[{"system":"http://terminology.hl7.org/CodeSystem/measure-population","code":"initial-population","display":"Initial Population"}]},"count":1},{"code":{"coding":[{"system":"http://terminology.hl7.org/CodeSystem/measure-population","code":"denominator","display":"Denominator"}]},"count":1},{"code":{"coding":[{"system":"http://terminology.hl7.org/CodeSystem/measure-population","code":"denominator-exclusion","display":"Denominator Exclusion"}]},"count":1},{"code":{"coding":[{"system":"http://terminology.hl7.org/CodeSystem/measure-population","code":"numerator","display":"Numerator"}]},"count":0},{"code":{"coding":[{"system":"http://terminology.hl7.org/CodeSystem/measure-population","code":"denominator-exception","display":"Denominator Exception"}]},"count":0}]}],"evaluatedResource":[{"reference":"Patient/b1d0c606-661d-44e8-a25f-4e7ca8131f2a"},{"reference":"Condition/5c953f97b848462de0ae40fc"},{"reference":"Encounter/5c953f97b848462de0ae40fd"},{"reference":"Encounter/5c953f97b848462de0ae40fe"},{"reference":"Encounter/5c953f97b848462de0ae40ff"},{"reference":"ServiceRequest/5c953f97b848462de0ae4101"},{"reference":"Coverage/5f2c53ce1c76ba5c99605771"},{"reference":"Condition/ischemic-stroke-1968"},{"reference":"Organization/Org-123456"},{"reference":"Practitioner/practitioner-123456"}]},"request":{"method":"PUT","url":"MeasureReport/76e7254e-ab8c-4697-a4b7-a4437b2a0f1e"}}]}