{"resourceType":"Bundle","id":"tests-dbe7efdb-fd75-4da4-a998-ae7e04051bd1-bundle","type":"transaction","entry":[{"fullUrl":"https://madie.cms.gov/Patient/dbe7efdb-fd75-4da4-a998-ae7e04051bd1","resource":{"resourceType":"Patient","id":"dbe7efdb-fd75-4da4-a998-ae7e04051bd1","meta":{"profile":["http://hl7.org/fhir/us/qicore/StructureDefinition/qicore-patient"]},"text":{"status":"generated","div":"<div xmlns=\"http://www.w3.org/1999/xhtml\"><div class=\"hapiHeaderText\">CMOdurED_ED=1hrNoObsBFEnc <b>DENEXPASS </b></div><table class=\"hapiPropertyTable\"><tbody><tr><td>Identifier</td><td>670854918483ca8b7894283bd5cddbcf5037c5392991b8777bf3c4f78ed05f0b</td></tr><tr><td>Date of birth</td><td><span>18 September 1985</span></td></tr></tbody></table></div>"},"extension":[{"url":"http://hl7.org/fhir/us/core/StructureDefinition/us-core-race","extension":[{"url":"ombCategory","valueCoding":{"system":"urn:oid:2.16.840.1.113883.6.238","code":"1002-5","display":"American Indian or Alaska Native","userSelected":true}},{"url":"text","valueString":"American Indian or Alaska Native"}]},{"url":"http://hl7.org/fhir/us/core/StructureDefinition/us-core-ethnicity","extension":[{"url":"ombCategory","valueCoding":{"system":"urn:oid:2.16.840.1.113883.6.238","code":"2135-2","display":"Hispanic or Latino","userSelected":true}},{"url":"text","valueString":"Hispanic or Latino"}]}],"identifier":[{"type":{"coding":[{"system":"http://terminology.hl7.org/CodeSystem/v2-0203","code":"MR"}]},"system":"https://bonnie-fhir.healthit.gov/","value":"633c9d040968f8012250fca3"}],"active":true,"name":[{"use":"usual","family":"DENEXPass","given":["CMOdurED_ED=1hrNoObsBFEnc"]}],"gender":"female","birthDate":"1985-09-18"},"request":{"method":"PUT","url":"Patient/dbe7efdb-fd75-4da4-a998-ae7e04051bd1"}},{"fullUrl":"https://madie.cms.gov/Condition/5c953f97b848462de0ae414a","resource":{"resourceType":"Condition","id":"547cac9e-49a1-4d03-af17-bd013263e446","meta":{"profile":["http://hl7.org/fhir/us/qicore/StructureDefinition/qicore-condition"]},"clinicalStatus":{"coding":[{"system":"http://terminology.hl7.org/CodeSystem/condition-clinical","code":"inactive"}]},"verificationStatus":{"coding":[{"system":"http://terminology.hl7.org/CodeSystem/condition-ver-status","code":"confirmed"}]},"category":[{"coding":[{"system":"http://terminology.hl7.org/CodeSystem/condition-category","code":"encounter-diagnosis","display":"Encounter Diagnosis"}]}],"code":{"coding":[{"system":"http://hl7.org/fhir/sid/icd-10-cm","code":"I48.20"},{"system":"http://hl7.org/fhir/sid/icd-10-cm","code":"I48.0"},{"system":"http://snomed.info/sct","code":"5370000"}]},"subject":{"reference":"Patient/dbe7efdb-fd75-4da4-a998-ae7e04051bd1"},"onsetDateTime":"2025-10-01T09:01:00.000Z","abatementDateTime":"2025-10-12T00:15:00.000Z"},"request":{"method":"PUT","url":"Condition/547cac9e-49a1-4d03-af17-bd013263e446"}},{"fullUrl":"https://madie.cms.gov/Encounter/5c953f97b848462de0ae414b","resource":{"resourceType":"Encounter","id":"d4cfdae1-dd2c-4849-a6ea-1bc977ab6728","meta":{"profile":["http://hl7.org/fhir/us/qicore/StructureDefinition/qicore-encounter"]},"status":"finished","class":{"system":"http://terminology.hl7.org/CodeSystem/v3-ActCode","code":"EMER","display":"emergency"},"type":[{"coding":[{"system":"http://snomed.info/sct","code":"4525004"}]}],"subject":{"reference":"Patient/dbe7efdb-fd75-4da4-a998-ae7e04051bd1"},"period":{"start":"2025-10-01T09:01:00.000Z","end":"2025-10-01T12:15:00.000Z"},"length":{"value":0,"unit":"days"}},"request":{"method":"PUT","url":"Encounter/d4cfdae1-dd2c-4849-a6ea-1bc977ab6728"}},{"fullUrl":"https://madie.cms.gov/Encounter/5c953f97b848462de0ae414c","resource":{"resourceType":"Encounter","id":"3e34b9e1-b2f9-4d72-9720-6f0767d80315","meta":{"profile":["http://hl7.org/fhir/us/qicore/StructureDefinition/qicore-encounter"]},"status":"finished","class":{"system":"http://terminology.hl7.org/CodeSystem/v3-ActCode","code":"IMP","display":"inpatient encounter"},"type":[{"coding":[{"system":"http://snomed.info/sct","code":"32485007"}]}],"subject":{"reference":"Patient/dbe7efdb-fd75-4da4-a998-ae7e04051bd1"},"period":{"start":"2025-10-01T13:15:00.000Z","end":"2025-10-12T00:15:00.000Z"},"length":{"value":11,"unit":"days"},"diagnosis":[{"condition":{"reference":"Condition/ischemic-stroke-1963"},"use":{"coding":[{"system":"http://terminology.hl7.org/CodeSystem/diagnosis-role","code":"billing","display":"Billing"}]},"rank":1}]},"request":{"method":"PUT","url":"Encounter/3e34b9e1-b2f9-4d72-9720-6f0767d80315"}},{"fullUrl":"https://madie.cms.gov/ServiceRequest/5c953f97b848462de0ae414e","resource":{"resourceType":"ServiceRequest","id":"dbd4511c-3c62-46a5-b88d-ff0c1a44e6af","meta":{"profile":["http://hl7.org/fhir/us/qicore/StructureDefinition/qicore-servicerequest"]},"status":"active","intent":"order","doNotPerform":true,"code":{"coding":[{"system":"http://snomed.info/sct","code":"133918004"}]},"subject":{"reference":"Patient/dbe7efdb-fd75-4da4-a998-ae7e04051bd1"},"authoredOn":"2025-10-01T09:15:00.000+00:00"},"request":{"method":"PUT","url":"ServiceRequest/dbd4511c-3c62-46a5-b88d-ff0c1a44e6af"}},{"fullUrl":"https://madie.cms.gov/Coverage/5f2c53cf1c76ba5c99605789","resource":{"resourceType":"Coverage","id":"586ade97-90d9-47d5-9ee1-a44649b2bf45","status":"active","beneficiary":{"reference":"Patient/dbe7efdb-fd75-4da4-a998-ae7e04051bd1"},"period":{"start":"1985-09-18T08:00:00.000Z"},"payor":[{"reference":"Organization/806b0255-13cb-4f2b-9412-571554dd2169"}]},"request":{"method":"PUT","url":"Coverage/586ade97-90d9-47d5-9ee1-a44649b2bf45"}},{"fullUrl":"https://madie.cms.gov/Condition/ischemic-stroke-1963","resource":{"resourceType":"Condition","id":"5d7ebaab-b7ce-4bc7-8888-23f6d8417b2d","meta":{"profile":["http://hl7.org/fhir/us/qicore/StructureDefinition/qicore-condition"]},"clinicalStatus":{"coding":[{"system":"http://terminology.hl7.org/CodeSystem/condition-clinical","code":"active"}]},"verificationStatus":{"coding":[{"system":"http://terminology.hl7.org/CodeSystem/condition-ver-status","code":"confirmed"}]},"category":[{"coding":[{"system":"http://terminology.hl7.org/CodeSystem/condition-category","code":"encounter-diagnosis","display":"Encounter Diagnosis"}]}],"code":{"coding":[{"system":"http://snomed.info/sct","version":"2021-09","code":"111297002","display":"Nonparalytic stroke (disorder)","userSelected":true}]},"subject":{"reference":"Patient/dbe7efdb-fd75-4da4-a998-ae7e04051bd1"},"recordedDate":"2025-10-13T08:00:00.000+00:00"},"request":{"method":"PUT","url":"Condition/5d7ebaab-b7ce-4bc7-8888-23f6d8417b2d"}},{"fullUrl":"https://madie.cms.gov/Organization/123456","resource":{"resourceType":"Organization","id":"806b0255-13cb-4f2b-9412-571554dd2169","meta":{"profile":["http://hl7.org/fhir/us/qicore/StructureDefinition/qicore-organization"]},"identifier":[{"use":"temp","system":"urn:oid:2.16.840.1.113883.4.4","value":"21-3259825"}],"active":true,"type":[{"coding":[{"system":"http://terminology.hl7.org/CodeSystem/organization-type","code":"pay","display":"Payer"}]}],"name":"Blue Cross Blue Shield of Texas","telecom":[{"system":"phone","value":"(+1) 972-766-6900"}],"address":[{"use":"billing","type":"postal","line":["P.O. Box 660044"],"city":"Dallas","state":"TX","postalCode":"75266-0044","country":"USA"}]},"request":{"method":"PUT","url":"Organization/806b0255-13cb-4f2b-9412-571554dd2169"}},{"fullUrl":"https://madie.cms.gov/Practitioner/practitioner-123456","resource":{"resourceType":"Practitioner","id":"5f89e5a3-08e3-44c5-8527-c799968d49ec","identifier":[{"system":"http://hl7.org/fhir/sid/us-npi","value":"123456"}],"name":[{"family":"Evil","prefix":["Dr"]}]},"request":{"method":"PUT","url":"Practitioner/5f89e5a3-08e3-44c5-8527-c799968d49ec"}},{"fullUrl":"https://madie.cms.gov/MeasureReport/9309874f-cc5a-4561-8ca0-ac2bacb85e9b","resource":{"resourceType":"MeasureReport","id":"9309874f-cc5a-4561-8ca0-ac2bacb85e9b","meta":{"profile":["http://hl7.org/fhir/us/cqfmeasures/StructureDefinition/test-case-cqfm"]},"contained":[{"resourceType":"Parameters","id":"83ea9faf-f479-4177-a693-9d36b2aad9cd-parameters","parameter":[{"name":"subject","valueString":"dbe7efdb-fd75-4da4-a998-ae7e04051bd1"}]}],"extension":[{"url":"http://hl7.org/fhir/us/cqfmeasures/StructureDefinition/cqfm-inputParameters","valueReference":{"reference":"#83ea9faf-f479-4177-a693-9d36b2aad9cd-parameters"}},{"url":"http://hl7.org/fhir/us/cqfmeasures/StructureDefinition/cqfm-testCaseDescription","valueMarkdown":"Testing Coverage issue do not perform is true"}],"modifierExtension":[{"url":"http://hl7.org/fhir/us/cqfmeasures/StructureDefinition/cqfm-isTestCase","valueBoolean":true}],"status":"complete","type":"individual","measure":"https://madie.cms.gov/Measure/AnticoagulationTherapyforAtrialFibrillationFlutterFHIR","period":{"start":"2025-01-01","end":"2025-12-31"},"group":[{"population":[{"code":{"coding":[{"system":"http://terminology.hl7.org/CodeSystem/measure-population","code":"initial-population","display":"Initial Population"}]},"count":1},{"code":{"coding":[{"system":"http://terminology.hl7.org/CodeSystem/measure-population","code":"denominator","display":"Denominator"}]},"count":1},{"code":{"coding":[{"system":"http://terminology.hl7.org/CodeSystem/measure-population","code":"denominator-exclusion","display":"Denominator Exclusion"}]},"count":0},{"code":{"coding":[{"system":"http://terminology.hl7.org/CodeSystem/measure-population","code":"numerator","display":"Numerator"}]},"count":0},{"code":{"coding":[{"system":"http://terminology.hl7.org/CodeSystem/measure-population","code":"denominator-exception","display":"Denominator Exception"}]},"count":0}]}]},"request":{"method":"PUT","url":"MeasureReport/9309874f-cc5a-4561-8ca0-ac2bacb85e9b"}}]}