{"resourceType":"Bundle","id":"tests-93e2d9e6-00b4-4dfc-a404-f0bd5e73fa7b-bundle","type":"transaction","entry":[{"fullUrl":"https://madie.cms.gov/Patient/93e2d9e6-00b4-4dfc-a404-f0bd5e73fa7b","resource":{"resourceType":"Patient","id":"93e2d9e6-00b4-4dfc-a404-f0bd5e73fa7b","meta":{"profile":["http://hl7.org/fhir/us/qicore/StructureDefinition/qicore-patient"]},"text":{"status":"generated","div":"<div xmlns=\"http://www.w3.org/1999/xhtml\"><div class=\"hapiHeaderText\">CMOdurEnc_NoEDNoObsBFEncDayOf <b>DENEXPASS </b></div><table class=\"hapiPropertyTable\"><tbody><tr><td>Identifier</td><td>9aa695fb8ef01380aee71e782330c899</td></tr><tr><td>Date of birth</td><td><span>18 September 1985</span></td></tr></tbody></table></div>"},"extension":[{"url":"http://hl7.org/fhir/us/core/StructureDefinition/us-core-race","extension":[{"url":"ombCategory","valueCoding":{"system":"urn:oid:2.16.840.1.113883.6.238","code":"1002-5","display":"American Indian or Alaska Native","userSelected":true}},{"url":"text","valueString":"American Indian or Alaska Native"}]},{"url":"http://hl7.org/fhir/us/core/StructureDefinition/us-core-ethnicity","extension":[{"url":"ombCategory","valueCoding":{"system":"urn:oid:2.16.840.1.113883.6.238","code":"2135-2","display":"Hispanic or Latino","userSelected":true}},{"url":"text","valueString":"Hispanic or Latino"}]}],"identifier":[{"type":{"coding":[{"system":"http://terminology.hl7.org/CodeSystem/v2-0203","code":"MR"}]},"system":"https://bonnie-fhir.healthit.gov/","value":"633c9d030968f8012250fc89"}],"active":true,"name":[{"use":"usual","family":"DENEXPass","given":["CMOdurEnc_NoEDNoObsBFEncDayOf"]}],"gender":"female","birthDate":"1985-09-18"},"request":{"method":"PUT","url":"Patient/93e2d9e6-00b4-4dfc-a404-f0bd5e73fa7b"}},{"fullUrl":"https://madie.cms.gov/Condition/5c953f96b848462de0ae409f","resource":{"resourceType":"Condition","id":"5c953f96b848462de0ae409f","meta":{"profile":["http://hl7.org/fhir/us/qicore/StructureDefinition/qicore-condition"]},"clinicalStatus":{"coding":[{"system":"http://terminology.hl7.org/CodeSystem/condition-clinical","code":"inactive"}]},"verificationStatus":{"coding":[{"system":"http://terminology.hl7.org/CodeSystem/condition-ver-status","code":"confirmed"}]},"category":[{"coding":[{"system":"http://terminology.hl7.org/CodeSystem/condition-category","code":"encounter-diagnosis","display":"Encounter Diagnosis"}]}],"code":{"coding":[{"system":"http://hl7.org/fhir/sid/icd-10-cm","code":"I48.20"},{"system":"http://hl7.org/fhir/sid/icd-10-cm","code":"I48.0"},{"system":"http://snomed.info/sct","code":"5370000"}]},"subject":{"reference":"Patient/93e2d9e6-00b4-4dfc-a404-f0bd5e73fa7b"},"onsetDateTime":"2025-10-01T09:00:00.000Z","abatementDateTime":"2025-10-12T00:15:00.000Z"},"request":{"method":"PUT","url":"Condition/5c953f96b848462de0ae409f"}},{"fullUrl":"https://madie.cms.gov/Encounter/5c953f96b848462de0ae40a0","resource":{"resourceType":"Encounter","id":"5c953f96b848462de0ae40a0","meta":{"profile":["http://hl7.org/fhir/us/qicore/StructureDefinition/qicore-encounter"]},"status":"finished","class":{"system":"http://terminology.hl7.org/CodeSystem/v3-ActCode","code":"IMP","display":"inpatient encounter"},"type":[{"coding":[{"system":"http://snomed.info/sct","code":"32485007"}]}],"subject":{"reference":"Patient/93e2d9e6-00b4-4dfc-a404-f0bd5e73fa7b"},"period":{"start":"2025-10-01T09:00:00.000Z","end":"2025-10-12T00:15:00.000Z"},"length":{"value":11.0,"unit":"days"},"diagnosis":[{"condition":{"reference":"Condition/ischemic-stroke-1969"},"use":{"coding":[{"system":"http://hl7.org/fhir/sid/icd-10-cm","version":"2022","code":"I63.019","display":"Cerebral infarction due to thrombosis of unspecified vertebral artery","userSelected":true}]},"rank":1}]},"request":{"method":"PUT","url":"Encounter/5c953f96b848462de0ae40a0"}},{"fullUrl":"https://madie.cms.gov/ServiceRequest/5c953f96b848462de0ae40a2","resource":{"resourceType":"ServiceRequest","id":"5c953f96b848462de0ae40a2","meta":{"profile":["http://hl7.org/fhir/us/qicore/StructureDefinition/qicore-servicerequest"]},"status":"active","intent":"order","code":{"coding":[{"system":"http://snomed.info/sct","code":"133918004"}]},"subject":{"reference":"Patient/93e2d9e6-00b4-4dfc-a404-f0bd5e73fa7b"},"authoredOn":"2025-10-01T09:01:00.000+00:00"},"request":{"method":"PUT","url":"ServiceRequest/5c953f96b848462de0ae40a2"}},{"fullUrl":"https://madie.cms.gov/Coverage/5f2c53cc1c76ba5c9960573b","resource":{"resourceType":"Coverage","id":"5f2c53cc1c76ba5c9960573b","status":"active","beneficiary":{"reference":"Patient/93e2d9e6-00b4-4dfc-a404-f0bd5e73fa7b"},"period":{"start":"1985-09-18T08:00:00.000Z"},"payor":[{"reference":"Organization/Org-123456"}]},"request":{"method":"PUT","url":"Coverage/5f2c53cc1c76ba5c9960573b"}},{"fullUrl":"https://madie.cms.gov/Condition/ischemic-stroke-1969","resource":{"resourceType":"Condition","id":"ischemic-stroke-1969","meta":{"profile":["http://hl7.org/fhir/us/qicore/StructureDefinition/qicore-condition"]},"clinicalStatus":{"coding":[{"system":"http://terminology.hl7.org/CodeSystem/condition-clinical","code":"active"}]},"verificationStatus":{"coding":[{"system":"http://terminology.hl7.org/CodeSystem/condition-ver-status","code":"confirmed"}]},"category":[{"coding":[{"system":"http://terminology.hl7.org/CodeSystem/condition-category","code":"encounter-diagnosis","display":"Encounter Diagnosis"}]}],"code":{"coding":[{"system":"http://snomed.info/sct","version":"2021-09","code":"111297002","display":"Nonparalytic stroke (disorder)","userSelected":true}]},"subject":{"reference":"Patient/93e2d9e6-00b4-4dfc-a404-f0bd5e73fa7b"},"recordedDate":"2025-10-13T08:00:00.000+00:00"},"request":{"method":"PUT","url":"Condition/ischemic-stroke-1969"}},{"fullUrl":"https://madie.cms.gov/Organization/123456","resource":{"resourceType":"Organization","id":"Org-123456","meta":{"profile":["http://hl7.org/fhir/us/qicore/StructureDefinition/qicore-organization"]},"identifier":[{"use":"temp","system":"urn:oid:2.16.840.1.113883.4.4","value":"21-3259825"}],"active":true,"type":[{"coding":[{"system":"http://terminology.hl7.org/CodeSystem/organization-type","code":"pay","display":"Payer"}]}],"name":"Blue Cross Blue Shield of Texas","telecom":[{"system":"phone","value":"(+1) 972-766-6900"}],"address":[{"use":"billing","type":"postal","line":["P.O. Box 660044"],"city":"Dallas","state":"TX","postalCode":"75266-0044","country":"USA"}]},"request":{"method":"PUT","url":"Organization/Org-123456"}},{"fullUrl":"https://madie.cms.gov/Practitioner/practitioner-123456","resource":{"resourceType":"Practitioner","id":"practitioner-123456","identifier":[{"system":"http://hl7.org/fhir/sid/us-npi","value":"123456"}],"name":[{"family":"Evil","prefix":["Dr"]}]},"request":{"method":"PUT","url":"Practitioner/practitioner-123456"}},{"fullUrl":"https://madie.cms.gov/MeasureReport/69217ea5-2f43-419a-8937-f67a2706ce01","resource":{"resourceType":"MeasureReport","id":"69217ea5-2f43-419a-8937-f67a2706ce01","meta":{"profile":["http://hl7.org/fhir/us/cqfmeasures/StructureDefinition/test-case-cqfm"]},"contained":[{"resourceType":"Parameters","id":"16f1ebbf-dfa5-4dd6-a71b-6de8701bed2b-parameters","parameter":[{"name":"subject","valueString":"93e2d9e6-00b4-4dfc-a404-f0bd5e73fa7b"}]}],"extension":[{"url":"http://hl7.org/fhir/us/cqfmeasures/StructureDefinition/cqfm-inputParameters","valueReference":{"reference":"#16f1ebbf-dfa5-4dd6-a71b-6de8701bed2b-parameters"}},{"url":"http://hl7.org/fhir/us/cqfmeasures/StructureDefinition/cqfm-testCaseDescription","valueMarkdown":"Patient receives CMO during inpatient encounter. No ED. No Obs. Testing day of operator with HospitalizationWithObservation function.\n"}],"modifierExtension":[{"url":"http://hl7.org/fhir/us/cqfmeasures/StructureDefinition/cqfm-isTestCase","valueBoolean":true}],"status":"complete","type":"individual","measure":"https://madie.cms.gov/Measure/AnticoagulationTherapyforAtrialFibrillationFlutterFHIR","period":{"start":"2025-01-01","end":"2025-12-31"},"group":[{"population":[{"code":{"coding":[{"system":"http://terminology.hl7.org/CodeSystem/measure-population","code":"initial-population","display":"Initial Population"}]},"count":1},{"code":{"coding":[{"system":"http://terminology.hl7.org/CodeSystem/measure-population","code":"denominator","display":"Denominator"}]},"count":1},{"code":{"coding":[{"system":"http://terminology.hl7.org/CodeSystem/measure-population","code":"denominator-exclusion","display":"Denominator Exclusion"}]},"count":1},{"code":{"coding":[{"system":"http://terminology.hl7.org/CodeSystem/measure-population","code":"numerator","display":"Numerator"}]},"count":0},{"code":{"coding":[{"system":"http://terminology.hl7.org/CodeSystem/measure-population","code":"denominator-exception","display":"Denominator Exception"}]},"count":0}]}],"evaluatedResource":[{"reference":"Patient/93e2d9e6-00b4-4dfc-a404-f0bd5e73fa7b"},{"reference":"Condition/5c953f96b848462de0ae409f"},{"reference":"Encounter/5c953f96b848462de0ae40a0"},{"reference":"ServiceRequest/5c953f96b848462de0ae40a2"},{"reference":"Coverage/5f2c53cc1c76ba5c9960573b"},{"reference":"Condition/ischemic-stroke-1969"},{"reference":"Organization/Org-123456"},{"reference":"Practitioner/practitioner-123456"}]},"request":{"method":"PUT","url":"MeasureReport/69217ea5-2f43-419a-8937-f67a2706ce01"}}]}